activityID,heart_rate,hand temperature (°C),hand acceleration X ±16g,hand acceleration Y ±16g,hand acceleration Z ±16g,hand gyroscope X,hand gyroscope Y,hand gyroscope Z,hand magnetometer X,hand magnetometer Y,hand magnetometer Z,chest temperature (°C),chest acceleration X ±16g,chest acceleration Y ±16g,chest acceleration Z ±16g,chest gyroscope X,chest gyroscope Y,chest gyroscope Z,chest magnetometer X,chest magnetometer Y,chest magnetometer Z,ankle temperature (°C),ankle acceleration X ±16g,ankle acceleration Y ±16g,ankle acceleration Z ±16g,ankle gyroscope X,ankle gyroscope Y,ankle gyroscope Z,ankle magnetometer X,ankle magnetometer Y,ankle magnetometer Z,PeopleId
vacuum cleaning,84.0,34.75,-9.41406,-1.61825,4.48454,0.87294,-0.698299,-0.264925,48.8891,10.8048,-6.03447,38.1875,5.6574,7.39647,-3.71262,-0.0889207,-0.457144,-0.106346,6.01644,-28.5802,30.2294,34.75,8.84131,2.16125,-1.94558,0.113621,-0.0959559,-0.997449,-51.6965,18.8409,22.1957,8
lying,71.0,31.25,8.34889,-1.86855,4.82843,0.0339216,0.0295091,-0.0251056,-1.6059,16.955,-40.8126,33.5,1.34786,-0.2927,9.7479,0.0118461,0.0144626,-0.0356937,30.7606,7.14922,-28.4926,31.5625,0.622534,-9.73121,0.745207,0.0280192,-0.0408924,-0.00618261,-16.1202,19.2616,-8.75118,3
transient activities,125.0,31.3125,2.69459,9.36088,3.9361,-0.620383,-0.216908,0.249182,-8.03013,-20.3151,-41.4879,36.75,1.7251,9.43671,0.97218,-0.136886,0.171298,-0.197377,13.3313,-31.84,-14.7132,34.5,9.87798,-0.427896,-1.8417,-0.0285871,0.0486099,-0.243389,-44.6981,28.6566,7.92156,3
lying,68.0,30.4375,0.405866,4.48871,8.6522,-0.00199397,0.0167727,-0.00927389,-5.51497,16.5446,-33.2553,33.0,0.88582,2.26657,9.34401,0.0360867,-0.0157471,-0.00424413,35.5358,3.92834,-33.0607,30.3125,-0.984957,-8.91826,-4.60168,0.00337493,0.0129393,0.00528571,-12.9379,29.0517,-7.18086,7
transient activities,128.0,32.0625,1.44706,10.5725,2.56627,0.253358,1.02447,0.368351,19.6452,-58.589,-33.3063,36.75,-0.150427,9.6114,-1.92772,-0.0137496,-0.0592225,0.0615075,24.5098,-44.6825,29.0768,34.0,9.58019,-2.44187,-1.40777,-0.00530334,-0.0198892,0.0207098,-69.2736,-10.8758,-24.234,1
vacuum cleaning,98.0,35.375,-2.62255,3.70565,7.53183,-0.0953102,-0.0883538,-0.601311,2.20732,-15.5187,-42.6565,37.6875,-1.56857,9.65164,-2.22459,0.474234,-1.00251,-0.396391,12.9642,-38.5989,-6.8905,34.375,10.1787,1.08019,-0.76747,-0.791079,0.964768,1.02279,-48.4528,4.28631,-12.383,5
walking,104.0,34.4375,-9.16078,3.1769,2.08594,0.449243,-0.0958538,-0.225107,34.2447,-19.4462,-18.5509,38.0625,1.24915,9.61333,-0.973064,-0.233715,-0.486144,0.0321699,2.44273,-33.6979,-5.8635,33.8125,9.22935,-0.257452,-3.62453,-0.040444,-0.135278,0.0526202,-29.4027,17.5837,16.6023,5
ironing,96.0,33.3125,0.340243,9.39565,5.74811,1.38225,0.610425,-0.13915,38.9257,-75.2632,-76.0635,35.125,1.36811,9.3331,-3.3707,-0.046958,-0.711296,0.173856,-30.7204,-66.1634,1.48779,33.875,9.66854,-0.268091,-2.65522,-0.105922,0.0221138,0.109853,-52.7426,-20.4983,50.9094,1
transient activities,97.0,33.5,5.22754,5.0046,2.71866,2.03403,0.429445,0.425877,-41.0254,1.18477,-32.893,37.6875,-0.226764,8.84149,-4.44346,0.211792,0.481556,-0.423443,-17.5106,-46.329,8.21164,35.125,9.52371,-1.87636,-0.871608,0.0412083,-0.208559,-0.059711,-46.1062,31.1732,46.9502,2
cycling,128.0,31.0625,-3.68215,-2.75416,5.53641,-1.65058,0.357531,0.178232,19.4288,-14.9553,-52.2747,35.6875,1.26489,7.62508,-5.41922,0.245944,-0.784814,1.53833,-11.4359,-39.9127,13.8158,32.0,11.6485,-2.02882,-2.43104,0.168751,0.766782,1.91754,-41.3788,-9.89969,11.7698,8
transient activities,123.0,30.625,-5.35787,-3.52036,7.47675,-2.21539,-2.75246,0.0303502,43.1127,17.6674,-39.791,34.25,-0.135724,9.56573,2.44817,-0.538842,-0.0105378,0.0711897,7.65816,-49.7729,12.8766,31.8125,9.7422,-3.88072,-2.01462,0.381213,0.433083,0.76251,-50.6918,56.0259,-12.0254,8
ironing,104.0,33.4375,-6.65232,4.67735,6.58298,-0.25136,0.551508,1.09101,9.74853,-7.8602,-50.4609,35.4375,-1.6342,8.46147,-5.62935,-0.0421952,-0.0206556,-0.0462328,10.6241,-41.3621,4.81227,34.125,9.74243,0.166653,-0.148842,0.0384477,-0.0318477,-0.0352167,-49.5002,6.7996,36.2588,4
descending stairs,134.0,32.125,-2.60869,5.86785,7.48626,-0.710303,-2.22218,-1.03921,-1.18681,-20.1913,-56.6097,36.6875,0.239204,6.47127,-3.92394,-0.163123,-0.164305,0.227227,18.7672,-38.9367,8.28176,34.75,21.576,-3.21861,0.842492,-1.27255,1.02739,-4.01705,-35.2191,-20.7653,-1.10008,2
ascending stairs,109.0,32.25,-12.8566,1.57768,-1.77428,1.48657,-0.365585,0.332063,24.5993,-17.7274,-0.634299,36.6875,1.65998,14.2011,-1.67751,-0.261541,0.208361,-0.561679,-7.74563,-18.4185,11.9523,34.25,16.4655,-3.34314,1.40829,-0.958528,0.295832,-1.07379,-4.22106,11.59,22.6333,3
ascending stairs,127.0,32.625,-10.8701,3.21594,0.713142,-0.582044,0.0696686,1.02518,52.9261,2.51719,-14.6537,35.625,2.10089,12.5953,0.50407,0.00966028,1.10641,-0.688342,-0.261921,-29.6372,29.3457,33.5625,15.3713,-1.42169,-0.582924,0.059828,0.764886,-2.62565,-35.2827,-31.733,2.03014,4
ascending stairs,76.0,33.75,-9.13502,2.98423,1.77907,0.0289427,-0.0118516,-0.0356974,32.1893,-36.3136,16.9882,37.75,2.1052,9.47292,0.940228,0.0479142,-0.0202686,-0.0199944,-31.2109,-24.4624,-3.75302,32.5625,9.43331,-0.833948,-2.92425,0.0355382,-0.0206457,0.0113573,-10.3325,-1.27811,55.1278,7
sitting,80.0,32.9375,-3.20068,6.28251,6.66776,-0.00402947,0.0112474,-0.0261908,10.9337,-21.5543,-21.2467,35.0625,0.604903,9.56981,-2.14622,-0.00993482,-0.0484649,-0.0115753,2.89509,-24.3113,4.80269,33.8125,9.61866,1.76783,-0.85466,0.0188727,0.0209539,-0.0268956,-6.89742,-5.53557,22.9489,4
transient activities,110.0,32.75,1.48402,7.66563,4.23159,-0.256119,-0.58478,-0.967881,-18.4835,-18.883,-44.5626,36.6875,0.840702,8.23351,0.805185,0.295847,-1.99988,-0.0837684,28.6902,-44.3341,-10.4146,34.9375,10.0265,-1.2924,-3.03109,-3.04554,-0.135968,-0.034069,-69.4042,-11.7186,12.3825,6
transient activities,152.9,33.5625,5.74885,1.85638,7.50952,0.279194,0.143783,-0.100937,-13.7616,-18.5048,-30.2702,37.8125,0.766739,9.806,-0.556499,0.019329,-0.0183785,0.00152451,0.779981,-30.2794,-9.70159,33.5625,9.05973,-0.0605571,-4.3607,0.00805353,-0.0299292,0.0371933,-6.74497,-3.04995,-4.71069,8
standing,100.0,33.1875,-8.10836,2.23027,3.22103,-0.0529733,0.276541,-0.0182658,35.4858,-9.07942,-5.49304,35.1875,-1.53759,9.69629,-1.1787,-0.0282219,0.03886,0.211478,-1.55584,-33.1716,1.86093,33.9375,9.00485,-0.0492657,-1.04263,-0.372725,-0.209399,0.275556,-10.619,-16.8095,22.5234,4
rope jumping,175.0,28.4375,-8.87252,8.77129,-16.9029,4.57261,-5.28749,1.57383,42.0257,-16.2775,11.1018,32.1875,-1.03316,8.02351,-3.29378,-1.87965,-0.43114,1.19914,-16.656,-29.3326,28.2278,30.3125,3.77886,2.58239,1.51154,-0.467058,-1.11801,1.59806,-33.4502,-15.2214,34.0978,2
transient activities,131.0,34.625,-1.59101,10.8853,0.941723,0.344502,0.338672,-1.70065,20.422,-24.7909,-21.2463,38.3125,0.594239,9.57615,-1.21713,0.227108,0.462199,0.0490182,10.867,-25.9056,14.7375,34.3125,9.2684,-0.790534,-3.46647,0.0704763,0.00866087,-0.0166345,-29.0643,-7.1677,11.3844,5
ascending stairs,122.63636363636364,34.6875,-7.68643,1.72651,2.42081,0.940427,-0.686911,2.14034,62.6072,-1.5828,8.31716,37.9375,-1.05587,6.93582,-2.67112,-0.509908,-0.00800679,0.105349,-21.4121,-22.2909,40.1552,33.8125,2.55435,1.26095,-3.12357,1.04014,0.662919,0.115728,-4.6718,-39.4101,55.6174,5
Nordic walking,138.0,29.5625,-9.19163,8.65209,3.33709,-0.898821,-0.70656,1.45974,46.5768,-2.48368,-19.991,34.875,-0.454153,14.0994,-1.0185,0.162169,-0.0654251,-0.180313,13.5516,-33.2351,22.694,33.0,16.7614,-18.6353,9.41709,1.16828,0.238453,-2.0605,-45.5889,5.48706,6.63116,4
descending stairs,107.0,33.5625,-3.22722,4.47631,4.0948,-1.00716,0.243355,0.92496,-52.2772,13.4629,-23.6932,36.75,0.331516,19.0583,3.20019,0.865343,0.042481,-0.762496,12.0226,-45.3839,-21.523,35.125,-0.565491,-9.13465,-1.66323,-1.06898,-0.2913,1.09299,-43.0355,-23.0493,21.4238,6
transient activities,96.0,33.4375,-8.00501,4.47112,3.5614,0.0315207,-0.0283359,-0.0286755,40.9987,-8.00339,2.23196,36.75,1.32598,9.83902,-0.972406,0.0438757,-0.0889289,-0.029193,12.1111,-26.0916,25.3225,35.0625,9.51359,0.418862,-2.96979,-0.0385685,-0.0471881,0.0164275,-23.7485,-8.22285,5.44741,6
lying,72.0,34.125,6.41799,-2.06227,6.91696,-0.0528848,0.00625415,0.00559825,-40.1312,-7.40772,-15.5861,37.25,0.989361,-0.520918,9.23878,-0.0276793,-0.0149295,-0.00978217,35.3009,14.7658,-28.8938,33.6875,-0.986251,6.48279,-7.5529,0.0279696,-0.0439516,0.0103311,-14.9409,8.55688,37.9385,8
transient activities,142.0,30.375,-5.04573,6.69432,0.21134,0.22518,-1.43633,-1.19046,56.0998,-25.8712,-8.72093,34.0,2.73301,11.0669,-2.46102,-0.306148,1.05066,-0.404572,-25.3051,-52.9585,4.03935,33.25,11.7401,-0.523804,-0.818683,0.343252,1.30096,-0.486681,-60.28,2.16998,16.8023,1
walking,114.0,34.4375,-9.9213,3.95854,3.95779,-0.134393,0.661239,-2.0959,24.3464,-33.6933,-30.2553,38.125,-0.621632,13.6073,-1.48459,0.0989787,0.0154455,-0.000266114,8.10001,-38.0219,-16.9389,33.9375,10.09,3.32229,-5.60599,2.4596,-0.9139,-3.14081,-39.465,-17.9547,19.4448,5
transient activities,93.0,31.25,-3.905,7.42645,2.45823,-0.296683,0.631155,-0.132834,27.4136,-20.4458,-17.3499,36.25,-0.440725,9.08883,-1.38918,0.726868,-0.343095,-0.280234,4.6962,-25.4189,13.7048,34.8125,9.67068,-0.915163,-2.45824,-0.0976658,0.0231566,0.297367,-32.0322,-2.01247,6.68755,6
transient activities,105.0,34.4375,-11.9069,-0.643298,1.01853,1.8528,0.111545,-0.483349,58.9474,9.35539,-2.24024,38.1875,-0.697641,8.20889,-3.55935,-0.428876,-1.66111,1.12598,-34.9708,-45.692,2.30899,35.4375,8.98594,-1.12513,-4.12331,-0.141574,-0.0168573,0.00147384,9.72857,47.7161,65.4844,2
sitting,72.0,34.375,-2.0759,-9.52366,0.964823,-0.106251,-0.00124319,-0.0195731,7.52432,24.5474,-15.4827,37.625,0.298501,9.73846,0.36454,-0.0291765,0.0218253,-0.00401536,6.27891,-25.9749,-3.62458,34.0,9.19873,2.73419,-2.64008,-0.00169958,0.0146739,-0.00101329,-18.6894,16.3025,25.2932,8
lying,70.0,34.875,0.863717,7.64804,5.95429,0.0473172,-0.00733285,-0.00523005,-9.61748,7.58041,-33.3239,36.6875,-0.0633188,1.51777,9.52285,-0.0411253,0.0178437,-0.0100466,39.171,5.33687,-28.3903,34.125,-0.349312,-9.0362,-4.59443,-0.00488785,-0.00402106,-0.0114376,-14.0626,28.5966,-5.9078,5
Nordic walking,142.0,32.5625,-4.09786,7.56008,4.49472,-3.00308,1.99143,-3.20177,62.2331,-17.8588,-16.3429,37.0,-0.827322,11.0395,-8.21741,0.0389603,0.710765,0.0956042,-4.95864,-45.2898,44.1963,34.3125,16.1636,-2.27702,-8.05587,0.184907,1.62881,-2.86063,-25.4998,-54.4762,-22.5815,1
walking,121.0,30.6875,-19.6937,5.10811,5.1161,-5.78138,4.42874,-6.13828,37.4488,9.81527,-0.253139,37.0625,-0.220539,2.99875,0.183439,-0.0107086,0.568865,0.40532,4.37097,-31.2661,16.2864,34.625,10.7563,-1.70998,-3.59986,2.20165,2.29677,5.77195,-38.2637,-15.9944,5.04087,3
Nordic walking,125.0,30.8125,-7.66515,-8.3031,9.45967,-0.00608407,-0.0521227,0.851621,27.3825,50.2861,-24.7341,33.9375,-2.24333,12.3632,3.05915,0.329632,0.392709,0.257362,3.87397,-54.4127,20.2089,31.75,13.2551,1.03122,-1.77754,0.591356,0.842469,1.97135,-34.2126,36.0839,9.3305,8
Nordic walking,114.0,30.375,-5.03917,8.82658,1.05097,-0.859901,-0.0268542,1.87826,7.07109,-44.3002,-12.7021,35.75,-2.21499,6.20949,0.717684,0.0812429,-0.435095,-0.364562,-7.69345,-38.6058,-11.2643,34.5625,10.0013,4.02794,-3.60462,0.577837,-0.548891,-0.710587,-40.0614,19.9469,26.4903,6
lying,76.0,33.8125,6.77671,2.86318,6.44387,-0.00220554,0.0361163,0.0247717,7.0684,2.13855,-44.7749,37.125,1.10074,3.54218,8.76294,-0.00575339,0.00553096,0.0283108,30.7612,-2.69632,-27.1575,34.625,-0.482091,-9.38243,-3.93762,0.018346,-0.0242388,-0.00132545,-12.2196,23.5823,-3.78585,2
ascending stairs,107.0,33.4375,-6.20021,3.55445,0.243127,-0.890363,0.500147,-0.526685,34.1909,-30.3474,5.66206,36.75,1.19577,9.45947,-1.4769,-0.0455502,0.431574,-0.101295,-20.7117,-36.8677,19.0922,35.0625,10.0286,0.380144,-3.27299,-0.551227,-0.0504546,-0.451293,-41.7389,9.73647,28.3401,6
transient activities,199.0,30.8125,0.00334424,-9.43445,4.26709,-0.671455,-0.16844,0.0102632,-2.95259,41.9879,-9.53061,34.1875,-1.37767,9.92329,-0.944219,0.143513,0.057016,-0.159142,29.1876,-35.729,6.03749,31.6875,9.1906,0.123435,-3.74306,0.0509247,-0.0405111,-0.0431424,-31.6689,10.5578,40.5721,8
transient activities,117.0,31.9375,-2.34562,9.48043,0.165412,0.0809114,-0.00592102,-0.0958259,10.1637,-23.7734,9.99717,36.75,-0.424633,9.70333,0.390274,0.0992466,-0.00214854,-0.0535714,-1.4222,-24.7027,16.2074,34.4375,9.8722,0.350966,0.430189,0.0445314,-0.00412719,-0.00815758,-16.8288,-4.27662,29.7463,3
running,106.0,33.8125,-13.8314,-5.16385,-1.2658,-0.200341,1.2772,-5.42679,19.5415,-45.8465,-30.3031,36.625,-0.336052,3.70508,-1.2149,-0.02204,-1.08025,-0.169894,-2.28562,-46.6965,11.803,34.0625,12.0316,-11.5297,-1.63495,-3.27996,-0.855083,-1.47196,-6.38002,-37.0758,32.4901,5
transient activities,92.0,34.375,-9.1401,2.83147,1.66405,0.3409,-0.405987,-0.122057,21.1905,-1.59492,-29.7007,38.1875,0.693785,9.45079,-2.99609,0.0286013,-0.0533192,-0.0801463,22.8863,-23.0521,3.58517,35.375,9.57631,-1.07179,-1.80221,0.0087515,-0.00731681,0.0271666,-12.9824,6.82393,-2.59679,2
walking,109.0,34.875,-8.89305,3.25141,2.16667,0.270009,-0.0729828,0.228691,42.4553,-10.4537,-19.4094,38.375,1.53187,9.57847,-0.425735,-0.118483,-0.173716,0.0054087,5.2255,-39.7503,10.5467,34.4375,9.52121,0.188481,-2.65957,0.0178638,-0.0142797,0.0153092,-19.8265,10.1476,14.5171,5
Nordic walking,141.0,32.1875,-20.6864,8.96756,7.28199,0.926443,0.868023,-2.00936,-15.3223,-28.9245,-58.3936,36.8125,0.10914,11.6147,-6.22755,-0.6513,0.241626,0.180221,31.6592,-56.0907,4.16398,34.0,17.3619,-3.00729,-7.88469,-1.55706,0.999862,-2.84197,-60.1486,-13.9625,-23.7227,1
transient activities,101.0,34.3125,-9.38672,-1.76409,0.944599,-0.226043,-0.0420223,-0.026632,48.1308,-19.802,0.714282,37.4375,-0.220434,9.66819,0.858739,0.074206,0.188277,-0.0302021,-5.62584,-39.7472,20.4825,33.8125,9.46414,-0.832258,-3.15548,2.28084e-05,0.0226299,-0.0812835,-44.0387,23.5943,-26.2894,8
cycling,132.0,28.1875,-10.7888,-0.73049,4.96129,0.128033,-0.0365831,-0.175582,38.6894,-3.81397,-40.5704,33.5625,0.929368,6.57419,-5.0734,-0.377462,-0.149562,0.208938,-6.96663,-39.9511,16.1032,32.75,5.80134,11.3152,-0.0654973,0.226816,-0.282921,-0.154448,-38.1786,-19.6996,17.0402,4
ironing,96.0,34.6875,-5.45452,-7.0765,4.33134,0.509497,-0.0214391,0.00620003,16.8022,29.0045,-32.5887,37.75,1.22837,9.40035,0.924578,-0.110025,0.0122842,0.0455165,-11.7284,-34.8367,-19.9151,34.5,8.71019,-4.5965,-6.57433,0.543299,-0.140443,-0.701333,-41.1504,-24.1266,-6.36742,8
transient activities,82.0,34.125,-9.34652,3.06555,2.19899,0.11512,0.170568,-0.626135,30.9339,10.8994,1.08785,36.625,0.698218,9.69509,-0.286334,0.0543627,0.21387,-0.281748,-3.20598,-25.3964,24.366,35.125,9.53884,-1.70729,-2.99493,-0.0740276,0.188104,0.15797,-12.5688,-39.3379,33.8892,6
sitting,78.0,31.75,-0.0993226,5.36008,8.06438,-0.00219889,-0.0119232,-0.0185589,1.47333,-16.1859,-24.6559,34.625,0.039957,9.26947,3.26545,-0.0832161,0.0229714,0.012054,4.65054,-18.6466,-8.33048,32.5625,9.07673,-4.00361,-0.399915,0.0587732,-0.0126368,0.00282844,-22.386,-0.346721,14.2375,3
ascending stairs,156.0,32.5,-7.41146,1.12113,2.85033,0.63674,0.338551,-1.05008,56.7286,8.25845,-32.9375,35.625,0.0728547,6.4196,-0.519342,-0.147311,-0.755376,-0.0854617,25.0708,-44.7259,-1.41331,33.5625,7.73289,-2.05675,-0.657316,-0.308081,0.362334,-2.81,-36.5688,-18.0152,4.27901,4
ironing,89.0,34.4375,-2.99215,3.55916,7.7962,0.728532,-0.30841,-0.0469967,-21.1336,-11.4854,-68.2075,37.8125,-0.262193,8.99274,-4.36715,-0.0536114,0.198591,-0.0961703,-13.8084,-45.2284,8.75961,35.1875,9.57983,-1.0241,-2.99875,0.0676043,0.00116036,-0.04192,-35.9661,9.88991,44.1647,2
running,82.0,32.5,-9.28938,2.53013,1.77829,-0.0290901,0.0183524,-0.0254531,42.6721,-3.38685,-12.235,36.8125,0.792671,9.95364,-0.98244,0.051893,0.00534097,-0.0624243,2.7114,-40.9527,15.7532,32.0,9.78154,-0.763357,-2.53522,-0.0294104,0.0256159,0.0163466,-24.3922,9.83184,4.85687,7
vacuum cleaning,106.0,33.6875,-9.57585,7.13732,-0.89717,-0.827754,0.000620312,0.383849,36.7587,-36.3373,-24.2277,36.0,-1.46024,-0.571669,-10.5144,0.814244,0.283343,0.20993,11.5631,-9.20349,50.6036,34.4375,10.169,2.60408,-1.39446,-0.375953,0.280503,-0.0963971,-44.9624,-11.052,-2.99203,4
transient activities,77.0,33.5625,-9.50677,-1.76489,0.750366,0.0215322,-0.0291173,0.0096063,48.5156,-9.14281,11.6724,36.375,-0.194901,9.66522,0.433281,-0.0193337,-0.0233367,-0.0348595,8.97836,-40.0332,25.2389,33.125,9.6233,-0.0754408,-2.9656,-0.023221,0.0334218,0.00777102,-35.448,38.1255,-17.7661,8
descending stairs,138.0,32.0625,-7.2404,1.03088,5.62429,0.912705,0.929885,1.20784,30.1969,12.8172,-23.2835,36.75,-0.988831,7.21443,-0.424997,-0.0152127,1.08868,0.127425,25.4704,-22.7108,5.70866,34.4375,23.1553,6.95313,-13.9071,7.22141,1.59464,3.93369,-17.1413,-7.28275,-0.980345,3
rope jumping,123.0,28.25,0.672824,6.85005,-7.01613,0.0536648,-0.0692704,0.0488384,0.722267,-11.5398,32.1099,31.9375,1.45316,9.06269,-4.3363,0.0587668,-0.0109187,0.0362108,-20.5382,-32.0712,11.9849,30.1875,9.56483,-1.37264,-2.14777,-0.0646038,-0.0327848,-0.01344,-35.2044,-0.738084,36.4946,2
walking,121.0,31.4375,-9.08308,7.59814,0.147816,-0.283539,0.159671,-0.524737,32.1346,-10.4921,-4.92457,36.3125,2.83557,8.46126,-9.07198,-0.0177012,0.70897,0.270223,-3.87138,-25.6723,-3.19842,34.4375,13.0702,3.80173,-6.15725,2.75824,-2.27389,-3.74279,-23.7634,27.3574,17.0199,2
vacuum cleaning,90.0,34.0625,-5.23383,5.66488,3.71435,-0.839001,-0.132442,-0.812155,26.6384,-20.526,-13.6733,37.125,-2.49424,6.23024,-7.45756,-0.707559,-0.0776037,-0.123718,6.7047,-19.8327,27.2235,33.0,9.52289,-1.18096,-2.34234,0.265191,-0.146557,-0.47289,5.14,26.7784,7.91958,7
standing,92.0,34.125,-8.37144,5.16717,0.474575,0.0289772,0.0188909,0.0171025,22.511,-25.9203,2.77317,37.5,0.817996,9.14287,-3.92214,-0.0272166,0.0493855,0.00948031,-8.96027,-24.6943,6.16419,34.8125,9.77057,-1.60742,-1.44959,0.0420873,-0.0318869,0.0435664,-19.1766,-16.7502,36.5641,2
ascending stairs,135.0,34.6875,-5.52476,1.91094,3.72265,1.02518,-0.328648,0.419145,34.8681,-19.9956,-47.6823,37.9375,0.368223,6.26596,-0.823259,-0.0365255,-0.212505,-0.0457997,24.9404,-56.323,-6.14252,33.8125,1.64154,-3.24828,1.13991,1.1587,0.119106,0.893952,-46.2638,-17.4331,-5.96768,5
transient activities,135.0,33.5625,-11.802,4.27832,4.12098,-0.972877,0.11298,0.666342,43.6074,-51.0133,-36.6237,37.0,3.70444,9.42379,-5.53576,-0.428795,0.495099,-0.25565,-14.2213,-58.377,-30.3668,34.8125,12.1077,3.25702,0.859564,0.745092,-0.236601,-2.57495,-51.812,71.3619,34.8001,1
lying,63.0,32.875,5.44844,0.230685,7.89538,-0.0161122,0.0148675,-0.00868419,16.6445,5.79475,-50.2952,34.9375,-0.368881,1.70673,9.47798,-0.0109327,-0.00640592,-0.0220164,40.5828,5.92989,-28.6658,33.625,2.50141,-9.55515,0.99492,-0.018502,0.021081,0.00924318,-21.6516,16.0817,-12.3024,4
sitting,84.0,35.0625,-0.0777713,-9.33141,2.99545,0.00797307,-0.00972097,-0.065984,5.08744,26.419,-9.45247,37.0,0.137833,4.93522,8.27631,0.0281665,-0.0185105,0.00788107,5.38004,-8.51412,-19.9455,34.25,8.97414,-3.1858,-2.83719,0.00160494,0.0120454,-0.00733115,-37.968,5.29355,26.231,5
Nordic walking,127.0,29.0625,0.786634,0.621111,0.819528,-0.232002,-0.301953,1.45226,9.46314,-26.312,-15.9656,34.4375,1.10906,6.94482,-0.308672,-0.151022,0.341645,-0.0176417,4.69939,-24.5233,20.4679,32.8125,10.5426,0.369031,-2.30291,-0.582031,-0.0152604,-0.879574,-35.6447,-16.37,10.2373,4
transient activities,103.0,34.3125,-7.03078,-5.12146,0.952727,0.976833,1.02036,0.213054,-9.57156,29.0164,104.865,37.4375,-0.303255,9.62055,-0.652723,0.0973244,-1.71093,0.264244,34.8105,-47.3159,34.9073,33.8125,10.1714,-1.79698,-1.79161,-0.413903,0.71158,0.529071,-54.3298,43.6128,39.1776,8
ironing,85.0,34.0,-1.59372,8.84933,2.37258,0.0834779,-0.110925,0.155675,11.8764,-41.826,-11.8082,36.4375,-1.35704,9.51403,-0.206817,0.0932921,-0.270706,-0.000173502,-3.43922,-36.1889,-6.03128,35.0625,9.32983,-2.31883,-2.33725,-0.0108837,-0.00755369,0.0160843,-27.5432,4.95855,45.2736,6
lying,89.0,31.5625,7.36533,1.3396,6.30388,-0.0035898,0.038017,-0.0261565,-3.41245,24.3117,-54.7158,33.3125,0.657819,-0.0656736,9.57978,0.000542574,-0.00604786,-0.0361206,46.6871,12.478,-46.1401,31.9375,0.0433875,-7.38744,-6.87742,-0.0189218,-0.0157996,-0.0194624,-20.1122,43.3769,-2.89126,1
lying,73.0,34.8125,0.710688,7.57299,5.91376,0.0121592,0.000567013,0.000414976,-10.1058,6.61407,-32.7921,36.5,-0.253493,1.66898,9.51891,-0.00456793,-0.00357563,-0.0024876,39.1891,4.30462,-28.5253,34.0625,-0.453887,-9.03774,-4.32537,0.0331957,0.0127215,0.0085131,-13.686,28.4466,-6.75729,5
walking,120.0,31.625,-8.75851,1.32435,3.17586,1.38196,0.873946,-4.09472,37.1236,-16.7998,-27.7325,36.4375,1.06945,9.2427,-5.73779,-0.324894,-0.807811,0.901137,14.0125,-24.3526,31.5191,34.5,-0.394325,-5.23584,-0.335037,-1.50992,-0.769534,1.2378,-16.7567,-24.8049,-11.9391,2
descending stairs,102.0,33.8125,-8.25505,1.41769,1.33569,1.85922,-0.626791,0.865787,42.4705,-45.3288,-23.9223,37.75,-0.129348,8.07331,-1.07047,-0.103747,-2.19256,-0.291876,2.19393,-55.7218,-24.9168,32.6875,8.72927,-0.72338,-6.63676,-2.02774,0.110136,0.653099,-44.1383,37.6591,26.3136,7
running,174.0,28.0,-8.64539,4.26769,1.47418,-0.159715,0.247081,0.462364,4.9053,-40.2137,-12.985,33.1875,1.42642,9.05402,-0.0774525,-0.319178,0.0174908,0.118761,-20.2344,-43.4632,19.697,33.8125,9.67765,-0.422856,-2.30686,-0.0336169,0.0013229,0.0105936,-48.8345,-43.3951,-34.313,6
sitting,73.9,33.5,-0.409826,8.25698,5.04795,0.0375967,0.1098,0.0928468,4.73579,-22.2167,-22.0176,35.8125,-0.195945,9.70261,0.39442,0.056889,0.0960064,-0.0129721,6.90115,-25.4829,-2.77702,34.75,9.47404,-0.835149,-2.80806,0.0789455,0.192772,-0.0203998,-18.4239,-3.19058,11.9846,6
vacuum cleaning,116.0,34.5625,-9.63678,0.807126,-0.26093,0.100309,-0.0827316,0.0164248,37.1108,19.8599,-24.0443,38.1875,-1.62105,9.70365,-0.134774,-0.0121405,-0.0837305,-0.0113092,20.8802,-23.1627,-1.5649,34.5625,9.38119,-0.905472,-3.42601,0.0736334,-0.0299182,0.0302763,-3.16782,-6.6211,23.5306,8
lying,81.0,33.6875,6.80169,1.79925,6.29389,-0.0414946,0.0192739,0.0454404,7.73116,1.66797,-45.0191,36.9375,1.40884,3.01512,8.92512,-0.0314074,0.0126483,-0.0667625,30.6563,-2.91517,-27.282,34.5,-0.589064,-9.42129,-3.74553,0.0635901,-0.0463636,-0.0179564,-12.6742,24.0395,-3.77725,2
transient activities,182.0,30.25,-14.005,3.08052,4.01504,0.965137,-0.878059,0.637935,48.9509,-19.5967,-49.7708,33.875,7.56071,-1.47691,-11.9743,-0.0530719,-0.679957,-0.872914,-24.4475,-11.409,63.9265,33.1875,7.42547,0.880242,-6.73726,0.0331491,-0.0307393,0.753306,-43.1353,21.7409,51.5289,1
transient activities,168.0,30.875,-7.63086,-5.60799,1.1763,-0.0150037,0.0211173,-0.0251799,39.0261,38.006,-15.1032,34.1875,-0.0244177,9.84822,-0.261202,0.0893111,0.0176395,-0.0937525,14.3413,-46.1395,2.46819,31.75,9.80553,-0.390096,-1.7655,0.0125409,-0.0206178,0.0128725,-60.7179,18.5611,36.6312,8
descending stairs,93.0,32.0625,-9.02333,2.61398,2.89813,-0.0488514,-0.0668189,0.0216751,22.4084,-3.36884,-24.1788,36.375,0.255887,9.48289,1.52623,0.0385208,-0.0507622,-0.0141471,1.16278,-32.5096,-7.05376,34.0,9.77804,0.671977,-1.61802,-0.0229063,0.0228904,-0.0592847,-51.1625,21.026,-15.3774,3
transient activities,109.0,32.9375,-11.6676,3.54361,2.70144,-1.96532,-0.31068,0.37649,35.4282,3.18015,-48.3489,35.0,2.23153,10.248,-1.30582,0.0643326,1.19412,0.148177,32.87,-35.0692,-14.8093,33.6875,9.47592,-0.694281,-1.45828,-0.884667,-0.204532,-0.614314,-22.2673,17.5429,-7.48399,4
transient activities,113.0,30.0625,-9.22431,2.2337,2.62699,0.00576793,0.0282604,0.00791028,52.5942,-22.9105,-22.7664,35.1875,0.863832,9.63109,1.45932,0.0498671,0.0949634,-0.00417154,-7.11072,-37.8484,-16.0587,33.0625,9.36626,0.875434,-2.97414,-0.0150981,0.020237,0.0171216,-92.3654,-1.33804,44.3437,4
transient activities,75.0,30.375,0.429974,6.53009,7.83744,-0.113253,0.148287,0.158967,-1.79627,-14.6289,-37.9104,32.25,0.101938,9.78408,1.44502,-0.0128605,-0.010342,-0.029081,0.752112,-26.4158,-12.0775,30.375,9.72531,0.475862,-0.806959,0.0135525,0.0139024,-0.0206738,-11.7796,-8.05212,9.61257,3
transient activities,165.0,33.75,2.43723,7.78385,5.55404,-0.121242,0.067916,0.010874,-2.53704,-20.0324,-45.9455,36.375,-0.338413,9.72547,-1.85405,-0.0456151,0.0206082,-0.0233146,17.445,-40.5455,-6.44983,34.8125,9.36077,-2.93629,-1.13683,0.00647169,-0.0236785,0.0104646,-37.2014,39.2376,-3.0432,1
ascending stairs,145.0,34.625,-6.76629,2.57555,4.81795,-0.192825,0.0725316,0.0117593,52.6743,-20.6698,-6.24496,37.9375,-0.45428,9.00175,-3.13159,-0.176824,-0.513362,-0.232884,-3.75245,-42.2647,18.5358,33.75,20.0901,7.66192,-10.0068,3.54461,-1.15481,-4.6763,-18.6183,-12.3839,34.5459,5
ironing,88.0,34.125,-4.91834,3.15772,7.88417,-0.129287,0.00483044,0.00288324,7.03083,-4.36969,-58.088,36.5625,0.0873115,9.57511,-1.61352,-0.0415153,0.0433379,-0.0479882,-2.27261,-39.1924,-11.5053,35.125,9.29793,-0.826491,-3.73607,0.0180598,-0.00710817,0.00356087,-27.5165,17.973,49.5135,6
ironing,88.0,34.25,-1.72985,7.36869,6.37823,-0.235382,-0.0673471,-0.299141,-11.2561,-22.3893,-34.8768,37.625,-0.506466,9.29972,-3.63687,0.00468102,-0.151961,-0.175282,2.81205,-34.7127,-4.335,35.0,9.81009,-1.41814,-1.41177,0.0428986,0.0265598,-0.0299308,-37.3057,14.0981,38.1554,2
walking,124.0,32.875,-2.45688,8.309,4.82467,-0.24284,0.000147533,0.176725,33.3591,-39.1159,-10.1077,37.125,-0.969803,9.50546,-1.28396,-0.0867414,0.046902,0.0398473,20.1887,-36.9994,23.383,34.4375,9.80953,1.00502,-0.577842,0.0280753,-0.0645885,-0.017433,-43.1227,-9.4691,-16.7586,1
lying,61.0,30.75,0.43991,4.52535,8.53713,0.0247107,0.00232739,-0.00437785,-5.01373,16.6415,-33.9131,33.375,0.809391,2.1915,9.34286,0.00531482,-0.03522,-0.015585,34.7524,4.34386,-32.7865,30.5625,-0.990965,-8.80243,-4.834,0.00228206,-0.072524,-0.0104857,-12.182,29.6586,-6.89524,7
standing,93.0,35.125,-9.01159,3.90459,2.97093,0.501053,-0.127818,-0.77445,27.8989,-16.7519,-21.9664,37.0625,0.851274,9.92053,-0.284294,0.0688948,-0.28822,-0.0590106,8.68062,-33.5373,-9.48712,34.3125,9.68837,-0.69217,-1.8806,0.0104654,0.0158286,0.0667751,-27.3902,21.6182,21.7107,5
sitting,90.0,32.4375,-0.573093,7.92403,5.85486,0.0423715,-0.0569467,-0.0119099,-34.0129,-19.7272,-46.1603,34.1875,0.948936,9.81226,0.453526,0.00170304,-0.101552,-0.0191775,13.283,-60.7602,-41.2298,32.875,9.15462,1.03588,-3.86486,-0.0163151,-0.0424851,-1.23139e-05,-85.3362,37.9322,15.6558,1
running,138.0,31.0,-19.7682,32.5957,2.7515,2.65288,-2.24631,-3.01319,27.7706,-60.5745,-17.103,34.1875,-0.751171,20.0969,-5.18652,0.853049,-1.73918,0.0700576,-7.11076,-66.3463,-15.8054,33.3125,4.2955,2.48255,-5.27431,1.57995,-0.220688,1.84267,-68.502,-50.6396,2.44307,1
transient activities,87.0,35.4375,-1.22809,8.03946,5.45978,-0.310698,-0.201998,-0.821706,3.54926,-75.0153,-17.1018,37.625,1.69929,9.61902,0.0805383,0.125984,-0.122452,-0.648923,-9.7255,-33.2361,-17.9362,34.5,9.6897,0.410204,-2.04178,-0.145628,0.249592,0.0528017,-44.8043,20.3428,36.8269,5
Nordic walking,130.0,34.625,-5.78318,12.3477,-0.434576,-0.740534,0.491153,2.89508,39.1,-29.5087,-18.106,38.375,0.159055,13.7797,-3.44578,0.277631,0.708346,-0.0234867,12.6075,-38.8748,22.7195,34.25,8.68405,4.33664,-7.8649,-1.04295,-0.930727,-1.58179,-44.7497,-10.2286,17.8571,5
walking,126.0,31.875,-14.0844,0.958061,-0.020162,0.28955,-1.40904,5.32641,33.9257,-29.1883,-23.0845,36.5,0.99222,5.27135,-2.82221,-0.248996,0.467052,-0.0940814,4.59335,-40.0685,12.7231,34.5625,8.515,0.383762,-2.55533,-0.033603,0.122115,-0.722446,-49.6796,7.91625,21.233,2
transient activities,124.0,32.8125,2.16984,8.07838,4.31744,0.0529877,-0.0483151,-0.00898577,13.5315,-42.3172,-35.6069,37.125,-0.179838,9.87691,-1.65806,-0.0221895,-0.0875555,0.0454509,23.2036,-39.9001,11.9025,34.375,9.85033,-0.251071,-0.222322,-9.34069e-06,-0.0129271,0.0066097,-42.9873,-4.04749,-18.311,1
walking,111.0,34.8125,-4.1201,4.84603,2.23278,2.48983,-0.197828,-0.104819,53.6851,7.1861,-23.8698,38.375,-0.489128,4.05285,0.020263,0.0347351,-0.054249,0.236581,5.97558,-49.4613,20.9004,34.375,9.36124,-0.730895,-1.53641,0.988389,0.842128,6.01428,-40.2109,-30.7911,19.7407,5
ironing,102.0,33.3125,-6.20903,5.50448,6.12499,-0.150339,0.105161,0.135365,-12.7734,-126.765,-60.5189,35.1875,0.333498,9.41032,-3.5833,0.331364,0.110549,-0.152732,-22.636,-63.3995,-0.347061,34.0,9.52404,-2.01787,-2.14418,0.0428704,0.0648004,-0.167426,-55.9389,-9.43909,49.073,1
standing,74.0,33.3125,-9.28235,2.52212,0.893215,0.0475262,0.0344992,-0.0047125,29.7907,-17.7127,-8.84118,36.0,0.956468,9.91811,-0.592147,0.0167345,-0.0146516,-0.0175927,-0.976075,-30.9943,-4.06958,32.5,9.15546,0.351162,-3.70625,0.00788205,0.0476507,-0.00067881,2.85858,-7.07928,13.7659,7
transient activities,113.0,33.5,-12.1946,4.13581,4.80835,-0.0860117,0.247206,0.810104,37.0867,-62.6046,14.1309,37.125,1.97665,14.741,-5.19713,-0.704744,0.0875963,0.309454,-46.4004,-43.0083,-17.2281,34.875,24.7278,5.91279,0.740967,3.32678,0.352963,-2.55632,3.23718,14.5346,64.0695,1
transient activities,126.0,31.0,3.54319,7.94773,3.64568,0.020584,-0.144142,-0.0960622,-26.0921,-70.8188,-18.3325,34.5,-0.0103222,9.84266,-1.07407,-0.00507092,-0.03586,0.0105201,-0.536242,-72.5866,19.3432,33.375,9.59819,-2.37107,-0.790595,0.0137004,-0.0109252,0.011391,-96.5144,13.6921,-23.9967,1
ironing,91.0,32.625,-4.695,8.23978,7.83188,0.384025,-0.307782,0.823395,-2.7062,-38.3181,-44.8676,35.8125,1.00239,9.84449,-0.32003,0.156838,-0.085364,-0.0658795,-9.12259,-35.9179,-12.2401,33.5625,9.7499,-0.498625,-2.38283,-0.0455097,0.056098,0.00241084,-35.0439,20.2057,37.4594,3
standing,100.0,35.125,6.4094,-0.625274,6.37316,1.39102,0.0272383,-0.485416,-15.4847,19.4338,-34.565,37.0625,-0.635219,9.63288,1.00622,0.179389,-0.0383873,0.0989021,9.07915,-29.2913,-14.1616,34.3125,9.70868,-0.812179,-1.14644,0.0132016,0.0185302,0.0983171,-24.6504,16.2227,28.3927,5
standing,91.72727272727272,35.1875,-8.38127,2.99743,3.90712,-0.0907805,0.0330974,-0.027454,40.7759,-10.4728,3.16601,37.125,-0.581738,9.82439,1.50994,0.0508973,0.00107885,0.0135908,-6.7484,-28.9806,0.53197,34.375,9.22401,-1.2826,-3.61823,0.0300035,0.0200684,0.00148396,-3.21247,-10.0581,36.0157,5
ironing,87.0,33.875,-3.21972,6.82507,-0.531496,-0.887521,0.148646,-0.238016,10.4812,-85.2995,2.89377,36.25,0.796222,9.41886,-2.10354,0.0945587,-0.146066,0.137647,-10.2749,-40.3181,-9.2985,34.9375,9.65767,-0.87334,-2.92171,0.0601917,-0.0505579,0.0308351,-35.6626,15.0206,45.6588,6
transient activities,95.0,32.9375,-9.34644,3.01793,1.12151,-0.0211762,-0.00565985,0.00813456,38.9147,-17.2118,-15.9492,37.625,1.95207,9.50212,-0.379154,-0.0320615,0.00726695,-0.0473085,2.37738,-36.7896,-6.83343,31.9375,9.39287,-0.566646,-3.08068,-0.0315229,-0.0386724,0.00155889,-21.2125,14.4946,24.4355,7
transient activities,116.0,32.4375,0.432101,-10.0232,-1.76702,-0.314954,-0.176212,-0.16415,-0.986402,24.2725,7.10808,37.0625,0.251136,9.69885,0.0540431,0.0386205,-0.0511252,0.00118606,17.6616,-26.5293,1.53392,32.6875,9.69221,0.257366,-1.92504,0.00688217,-0.0114398,0.0160946,-26.9375,13.621,24.2745,8
lying,106.0,30.625,0.0870993,7.14775,8.71543,-0.602346,-0.232573,0.605712,-30.9373,20.6119,-40.553,32.375,1.15028,1.81363,9.31155,0.0207425,0.0232324,0.010216,40.5272,11.639,-54.0797,31.0,-0.568114,-7.923,-5.91563,-0.000945226,0.00997868,0.0170626,-15.1319,45.0317,-7.86549,1
ascending stairs,139.0,34.0,-9.47359,-3.6795,-1.16705,-2.95464,-0.0912366,0.084879,28.7616,-12.5827,-27.8989,37.6875,2.60837,9.33395,-2.65125,-0.119451,0.378832,0.042049,16.8403,-27.1475,5.05682,32.75,9.01349,3.31591,-3.99623,0.0028895,0.167798,1.03631,-34.6701,31.0714,4.51241,7
sitting,90.0,33.5,-8.27223,5.41929,3.28479,-0.370107,0.713268,0.309218,25.7376,-27.9332,-27.6684,35.75,2.58664,10.0615,-0.872848,0.378757,0.972782,0.105497,-10.8146,-30.2388,-9.35948,34.6875,9.5417,-0.947602,-3.0382,0.236537,-0.0395359,0.19604,-22.6841,18.3736,48.8209,6
vacuum cleaning,93.0,35.4375,-3.38317,2.66696,1.05807,0.416645,-0.157791,-1.25615,38.3055,20.7817,-34.6821,37.6875,-0.736259,8.15376,-6.15417,0.214357,-0.174308,-0.494051,23.9545,-41.471,8.57175,34.375,9.78634,-0.688705,-2.38128,-0.205468,0.082182,0.0770696,-49.6259,14.6967,5.32979,5
running,177.0,33.8125,0.552601,-1.45952,9.75211,0.153731,-0.0989217,0.0918036,1.89507,-12.2739,-40.3134,36.375,2.18369,9.44693,-2.85292,0.106954,0.173796,0.0302315,-8.33724,-28.9411,18.7103,34.0625,6.27943,6.33788,-4.66045,-0.0714257,-0.0629796,0.0248581,-11.7098,-17.939,14.011,5
ascending stairs,157.0,33.3125,-7.94851,-0.0129587,2.84612,-0.758919,0.454479,-0.538141,7.74099,-11.946,-11.7186,36.6875,3.28081,9.23334,-0.509091,-0.0337111,0.674523,-0.0422172,-7.33029,-18.7651,-4.88825,35.0,9.80632,-0.238222,-1.76644,0.0323797,0.0917131,-0.262518,-32.3329,2.16801,22.1413,6
cycling,123.0,30.625,-9.88787,4.90518,7.99627,-0.217392,-0.0646896,0.0847193,48.1163,-6.28848,-19.5774,34.5625,-0.569103,9.23915,-7.04526,0.0437821,0.601902,-0.811629,12.7282,-14.1352,39.2184,31.875,3.74478,-2.67194,-1.31183,-0.307185,-0.521787,-1.81786,-19.1618,36.3633,9.38312,8
transient activities,96.0,34.9375,-0.0148435,11.4091,-2.73122,-0.460085,0.134794,0.584334,-15.826,-18.9983,-5.46018,36.75,2.66196,7.39191,-5.81909,-0.593853,1.73986,-0.624377,-10.4848,-39.5492,2.68104,34.125,9.18995,-2.53822,-3.26348,0.402292,0.0291272,-0.101433,-36.9084,34.8935,40.2418,5
walking,100.0,32.875,-7.84062,0.987803,0.304189,0.10783,-0.56051,0.662057,17.5689,-41.6419,-24.1567,37.625,2.30935,9.85171,1.36863,-0.188745,-0.297222,-0.0824987,-5.67473,-37.7711,-17.3182,31.9375,13.0192,0.530934,-0.773522,-1.06166,0.709906,-1.85083,-37.8355,4.28673,36.3027,7
transient activities,106.0,32.8125,-7.52322,5.08923,0.98788,-0.326221,0.377201,0.0156744,48.9974,-30.0668,11.1048,37.375,-0.038379,8.87803,-4.51761,-0.010063,0.0926387,-0.0843944,-16.9828,-44.8772,6.38294,35.0,9.69944,-1.95027,-1.25524,-0.0181827,-0.0277715,0.0725927,-45.1783,27.7485,44.8019,2
ascending stairs,119.0,34.125,-8.57477,3.30072,3.71077,-0.915776,0.338914,-0.474566,40.1694,7.90437,-28.5711,37.6875,0.0424585,8.9051,-0.489251,0.179014,1.56907,0.112521,18.9868,-32.6514,12.7172,32.9375,12.9221,3.28052,-7.31322,4.10775,-0.820901,4.93872,-44.8814,-13.6238,-0.577615,7
ironing,79.0,33.8125,-5.49556,5.60286,9.25282,-1.24399,-0.0851773,0.53942,-1.61715,-47.9689,-67.5173,36.6875,3.17118,8.99147,-2.91099,0.135376,-0.142613,0.03007,-19.3581,-33.928,-3.19379,32.8125,9.06618,-0.937047,-3.96929,-0.0395756,0.0949134,0.146159,-26.2139,-0.109101,51.9502,7
rope jumping,200.0,30.8125,3.23884,-12.2572,1.2076,-3.63986,-2.88672,1.06528,49.8443,8.14381,-11.9257,34.1875,1.2899854999999998,-3.867205,-9.311595,-0.8532105000000001,-0.206682,0.5188935,22.47105,-39.80685,11.0901,31.6875,12.0397,-21.4664,11.007,3.78206,1.19009,2.56279,-32.9415,24.1147,32.1838,8
walking,116.0,34.4375,-9.8288,4.21754,3.30401,-1.07917,0.60984,-3.31149,27.2714,-36.3238,-19.0905,38.0625,-2.12179,10.7314,-4.29033,-0.266264,-0.0994039,-0.0989474,-5.88929,-38.4141,-11.5349,33.875,19.5117,-1.32515,-6.29091,-3.95138,0.220177,-3.69058,-37.4559,-11.4608,28.9471,5
transient activities,105.0,33.25,-8.83969,4.2678,1.31732,0.402281,0.0315287,-0.215759,50.637,-37.197,-0.332247,37.625,0.780746,8.45708,-5.12093,-0.00959806,0.0537014,-0.0327178,-19.3619,-45.1405,7.20453,35.0625,9.28533,-1.13771,-2.80812,0.0568318,-0.0416164,-0.0502269,-37.5155,17.7813,60.7241,2
vacuum cleaning,111.0,33.6875,-8.71113,2.68987,3.17196,0.0114992,-0.00395897,-0.0415196,29.4524,-26.1469,-28.9991,35.875,1.25042,9.81053,0.34283,0.0260378,-0.0330871,4.1276e-05,-3.97412,-27.2549,-20.8912,34.375,9.53657,1.02058,-2.27868,-0.0017361,-0.0404511,0.0102857,-33.066,3.96537,51.6378,4
running,175.0,28.125,9.46845,-1.46546,-0.00557174,1.52598,-3.85575,-1.08613,40.247,-13.9331,-17.1529,33.25,-0.0994238,-0.207441,-0.578364,-0.503879,-1.25334,0.311205,17.6147,-23.1988,24.6394,33.875,17.2925,11.2967,2.71514,1.64246,-2.45399,8.38612,-29.9839,-18.1951,10.9685,6
running,169.0,33.8125,-16.5834,5.3986,2.15969,0.105544,0.698508,-5.53005,30.3669,-23.586,-23.6359,36.375,-0.169232,14.4528,-4.30577,1.54902,-0.367864,-0.477237,5.26344,-31.762,16.4238,34.0625,24.8251,-10.0392,-3.32671,-1.95608,-1.45733,-4.15165,2.36143,-35.1053,19.0445,5
transient activities,93.0,33.875,-9.68821,2.27246,2.31201,1.96612,-0.475373,-2.67922,21.8467,-22.9761,-20.1018,37.25,1.52076,7.67691,-3.20766,0.157123,0.484022,-0.497754,-2.07215,-28.7676,-1.21405,34.6875,1.27871,-1.67948,-0.0698234,0.732415,-0.392111,2.31778,-34.1106,-3.67692,13.679,2
cycling,124.0,28.8125,-6.41993,2.44255,7.2098,-0.790705,-0.485101,0.605963,29.2367,-21.0557,-41.2341,34.0625,0.853456,7.1127,-8.98734,-0.752631,0.360974,-0.159928,-5.19255,-37.4448,23.2926,32.75,11.7202,-1.58275,-1.31398,0.101955,-0.0562072,-0.189675,-40.8199,13.2884,25.9281,4
ascending stairs,158.0,33.8125,-7.19394,3.0962,3.27029,-1.74815,0.0194234,0.710852,62.6105,-30.1311,-28.3996,36.25,-0.244809,9.23122,-2.509,0.0754168,2.20381,-0.664832,-17.1177,-69.6712,5.48936,34.8125,17.5357,5.01896,-9.86219,2.68073,-1.7951,5.45283,-70.67,6.86183,15.0807,1
transient activities,114.0,28.125,-10.7079,2.68731,1.14072,0.698806,-0.568091,-1.93336,42.0336,-19.8125,-10.2305,31.75,0.460267,5.15436,-9.22042,-0.147026,0.198258,-0.0211267,-4.1418,-27.1888,29.156,30.0,9.19329,-1.47446,-3.34722,-0.254053,0.0575889,0.0483525,-26.1043,5.6693,36.6123,2
descending stairs,153.0,33.6875,-7.68118,2.72228,3.45669,0.762001,-0.512549,0.858487,91.7024,-66.2438,33.8344,36.9375,0.996464,4.13464,-3.8639,-0.250551,-0.67173,0.0777161,-46.2341,-70.1562,18.1628,34.875,6.3816,-3.41128,-5.79518,-0.31846,0.363222,-0.568901,-29.8869,-15.7444,72.8058,1
transient activities,119.0,33.8125,5.18823,-2.74954,5.36137,-1.55042,-0.386764,0.684446,-7.11285,-4.21701,-31.289,36.8125,-0.858264,9.88953,-0.121559,-0.202782,-0.290879,-0.0745979,7.09148,-28.0842,11.4805,34.0,9.86072,0.0501081,0.0846319,0.00272896,0.10195,-0.0293295,-25.6432,-5.17896,1.46591,5
walking,119.0,29.375,-12.7338,3.07693,4.72687,-2.1292,-1.33526,0.865194,39.0208,7.71607,-21.8193,36.8125,2.87314,11.5905,-2.92484,0.219955,0.787978,0.486272,14.3637,-30.2637,-7.5859,34.5,11.0561,-1.64662,-2.28513,-0.207736,-0.54168,-1.96667,-34.1723,17.4533,1.03192,3
Nordic walking,126.0,30.25,-7.5282,5.06966,3.0277,0.255179,0.683267,-2.54216,39.8943,-12.1096,-7.22972,35.25,1.50084,6.91103,-5.10286,-0.178789,-0.322518,0.709496,0.570044,-22.5453,29.6015,34.0625,0.829263,-4.49048,0.444677,1.63177,-1.36843,2.46775,-14.8746,-28.969,6.07275,2
transient activities,95.0,34.5625,-9.24312,1.7171,0.0113086,-0.138203,0.0422048,-0.180694,44.5057,-7.34393,16.0303,38.1875,0.294455,8.04677,-4.77992,0.123938,-0.052475,-0.245832,-11.1189,-16.9432,33.9671,35.375,9.60384,-1.06913,-2.14925,-0.050733,-0.0034554,0.0364991,-51.2689,-17.2683,44.6191,2
ironing,91.0,34.75,-8.58945,1.97151,3.56108,-0.0508554,-0.0419344,-0.314294,31.2646,-5.40398,-41.7268,38.0,1.86027,9.36843,-3.47806,-0.0799957,0.0764018,-0.0973531,-20.7484,-48.0668,0.542929,34.75,9.8585,2.38105,-1.74357,-0.0822001,0.0867382,-0.0619929,-38.1458,-32.088,7.83559,8
lying,92.0,30.875,5.98068,4.98954,5.92444,0.0452919,0.00109178,-0.0317237,-13.577,15.0507,-58.7497,32.6875,1.15183,1.96451,9.34981,0.0449008,0.0144404,-0.0318346,39.9052,9.9837,-54.0914,31.3125,-0.625456,-7.72682,-6.65064,-0.0086278,0.0137837,-0.0293984,-14.4278,44.3093,-5.15582,1
Nordic walking,122.0,30.75,2.26088,0.543871,1.95801,1.17951,-0.622088,0.624766,-5.72545,27.3474,-40.5382,33.8125,1.95311,18.4007,1.41183,-0.193469,0.00861858,0.158297,-8.86075,-39.725,-9.71504,31.8125,18.5355,2.946225,-7.87101,1.4370699999999998,1.475845,2.765285,-46.42855,9.911465,8.39598,8
descending stairs,101.0,33.875,-10.5577,6.02844,1.51657,4.9003,-1.26872,-0.836548,34.135,-0.0185584,-24.5085,37.875,-1.69662,9.94119,-4.00901,-0.373177,-1.24834,0.250077,21.2676,-28.2316,1.59237,35.125,9.75807,2.1335,-3.90408,-0.128318,-0.113305,0.347997,-57.4414,29.6563,-0.380507,2
cycling,125.0,32.0,-3.5869,4.3995,7.89992,-0.320789,0.236278,0.236807,30.1845,-43.6653,-39.7469,36.625,-0.267182,6.37758,-6.8756,-0.0914832,0.0250212,-0.10984,-26.2896,-39.3431,46.087,34.0,4.14436,4.08698,-1.69698,0.543322,0.0191354,1.0261,-40.6943,-44.6891,29.1391,1
transient activities,118.0,33.75,-7.9882,5.35496,0.595144,0.972778,-0.0774558,-0.376439,39.5565,-18.6721,-11.5785,35.875,2.10865,9.0335,-2.77549,-0.000114235,-0.322446,0.0991514,-9.8237,-39.0315,25.2539,34.8125,9.871,0.981117,-2.35218,-0.453124,0.074298,-0.0370904,-24.8991,27.347,29.2832,1
walking,114.0,31.1875,-13.4688,0.228019,3.7248,0.469618,0.265632,0.189586,38.4135,18.2044,16.1201,35.625,0.824036,14.4502,-4.21033,-0.298931,0.255898,0.231889,-1.68716,-25.3333,33.6825,33.4375,14.7231,-20.4273,2.57695,-2.11532,0.756649,-0.851163,-46.7959,-5.24134,15.433,4
ironing,97.0,33.3125,-4.19087,1.97073,7.32176,0.040212,-0.481684,1.70237,-20.7512,-14.0491,-82.1269,35.125,-1.14984,9.30278,-3.49366,0.185882,-0.670644,0.243473,-8.23057,-61.6807,-8.70662,33.9375,9.74255,-1.49585,-1.14185,-0.106326,-0.065379,0.0609797,-57.7969,-5.49662,47.8925,1
lying,87.0,33.8125,6.37245,-2.21541,6.72436,-0.00882113,-0.00878774,-0.0218866,-39.8847,-7.4207,-15.3241,36.75,0.917209,-0.70791,9.39296,-0.0074504,-0.0231706,-0.00620651,34.7789,15.6882,-29.3256,33.375,-1.13316,6.597,-7.47794,0.0525329,0.00327118,0.0242301,-15.307,8.06184,38.5051,8
ascending stairs,154.0,33.3125,-11.7562,2.2618,-0.682459,-2.20469,-1.16922,0.749242,44.0297,-11.02,1.32549,36.6875,2.24687,10.2804,-2.08006,0.11159,0.858131,-0.0275239,-8.6969,-33.8152,6.04503,35.0,9.61909,-0.475854,-0.416246,-0.199188,-0.484454,-0.563933,-52.5948,-12.5707,7.76212,6
ironing,89.0,35.4375,5.21215,10.0549,-5.30399,-0.659811,2.69285,0.856492,-19.0847,-33.3457,-8.51614,37.5625,0.0159082,10.1033,-1.50037,-0.719459,1.1794,0.319464,0.715991,-34.5329,-9.67789,34.5,7.43451,1.11172,-2.53234,3.60316,0.307215,-1.07744,-43.6393,9.31752,28.7594,5
ironing,76.0,33.625,-1.25659,7.52164,6.92362,-0.0527699,0.631764,-1.52508,-5.88096,-51.5811,-56.9882,36.5,2.181,9.2958,-2.92992,0.0101167,-0.153221,0.189969,-14.0138,-35.7994,-5.40205,32.75,9.2941,-0.293004,-3.97095,-0.102187,-0.0485416,0.124955,-26.5406,-3.05561,51.3852,7
transient activities,91.0,34.5625,-3.05858,8.731,4.81423,0.126183,-0.280541,0.103964,-4.06045,-127.237,-32.6488,36.125,1.469,8.4178,-5.03089,-0.448535,0.362125,0.0606607,-22.9032,-39.3523,5.97763,34.0,9.16714,-2.69436,-2.72249,-0.0839131,0.0440429,-0.17662,-38.0748,35.0766,38.961,5
sitting,79.0,34.9375,0.141966,8.61536,-5.25962,0.0663193,0.0978141,0.154669,5.98482,-16.9233,13.2492,36.8125,0.604638,9.48312,1.72615,0.0106034,0.00751525,-0.0194073,0.731826,-24.4797,-4.37669,34.125,8.79363,-3.17586,-3.91961,0.0684217,-0.00620942,0.0265463,-25.72,2.47776,20.7459,5
sitting,80.0,35.0625,-2.00833,-10.0943,0.852298,-0.189082,-0.0151725,0.0131549,9.25228,27.0695,-3.29695,37.0,0.132664,5.57378,8.04182,-0.00149975,-0.017194,-0.0157095,5.75926,-9.43222,-18.6686,34.25,9.16606,-3.11233,-2.68132,0.0398481,-0.0220547,0.0436527,-37.3468,5.6463,25.3818,5
transient activities,82.0,30.1875,-0.154742,8.30022,5.85985,0.243788,-0.244846,-0.159903,-2.51468,-21.0662,-33.3424,32.0,-0.479031,9.74614,1.12485,3.59376e-05,-0.021896,-0.0247456,2.22781,-26.7022,-10.5845,30.1875,9.75145,0.212736,-1.15236,0.0433251,-0.0183145,0.0263667,-11.7714,-8.4969,9.85532,3
ironing,99.0,33.375,1.51035,6.97221,7.31331,0.551812,-2.89401,1.18079,-42.931,-44.9319,-34.5255,35.25,0.101236,9.65352,-1.14887,-0.175721,-0.280461,-0.0620569,-21.7648,-53.3524,-14.6619,34.0625,9.33916,-2.85392,-1.90935,-0.378591,0.111736,0.271463,-52.3769,1.65497,51.6378,1
lying,72.0,34.875,0.786271,7.38305,5.95402,0.0319662,0.00601616,0.00335637,-9.87227,7.71846,-32.7993,36.625,-0.371169,1.70621,9.4005,0.00792136,0.000692706,0.0260984,38.6504,5.09756,-27.8285,34.125,-0.383746,-8.88473,-4.51855,0.0175212,-0.0233966,-0.00131973,-14.917,27.3551,-4.77471,5
lying,63.0,33.4375,4.96735,-0.217438,8.27456,-0.0273705,-0.0219316,-0.00166319,13.952,23.6915,-39.7685,35.625,0.568506,-1.12206,9.23311,-0.0127606,0.000677977,-0.00972269,37.0508,16.3759,-27.1987,34.625,-0.0570921,-9.57906,-3.43038,0.0164076,0.0466777,0.0119383,-16.8244,26.6757,-5.48979,6
transient activities,83.0,34.4375,8.64792,2.02914,3.93455,0.704614,0.266163,0.0898941,-17.9718,-15.3295,-37.3855,37.875,-0.22768,9.07582,-3.20517,0.0417437,0.446066,-0.18622,16.1601,-37.6645,0.889242,35.1875,9.67714,-0.308629,-2.34617,-0.11334,0.0260521,-0.136691,-43.9433,-0.690244,22.7034,2
transient activities,106.0,33.625,-7.46291,3.15455,5.3059,0.0298176,-0.00430013,-0.0053607,41.765,-25.3369,-61.312,35.75,-0.189828,9.85452,0.587642,-0.0478632,-0.0416569,-0.0254371,9.70747,-35.2373,-23.2887,34.3125,9.64935,0.905639,-2.23822,0.0213055,0.0146727,-0.000165013,-44.1941,7.20092,43.7941,4
transient activities,90.0,33.125,-6.48256,5.30513,4.81299,-0.024302,0.022787,-0.0193983,51.4812,-37.881,-43.6705,35.0625,0.861141,9.61297,-1.21242,-0.0316628,-0.00769981,-0.0384504,-6.87184,-39.5366,-13.3684,34.1875,9.17714,-0.557109,-4.08628,0.0153904,0.0171958,-0.0111853,-33.153,27.374,42.3912,6
transient activities,76.0,30.3125,-0.0551416,6.64905,7.98372,-0.0168742,-0.149096,0.169844,-2.79158,-14.686,-37.4367,32.125,0.0683987,9.78524,1.59929,0.00107972,0.0220581,-0.0111734,0.87612,-26.7574,-11.8309,30.3125,9.76474,0.437014,-0.729135,0.052789,0.0128153,0.00699007,-11.4376,-8.39671,9.72987,3
standing,91.0,35.1875,-8.82638,3.18262,3.01462,0.592495,-0.0450958,0.0650122,26.4991,-12.9558,-24.2175,37.0625,0.231891,9.76975,-0.604792,-0.0389531,-0.57408,0.0582108,11.1109,-33.1118,-8.90861,34.3125,9.6825,-1.1848,-1.99337,-0.0724028,-0.0503292,0.132894,-27.1604,23.4125,22.8441,5
descending stairs,109.0,33.8125,-5.77425,-3.14102,-1.34437,0.417435,1.15477,1.75845,11.2095,-27.3524,29.7362,37.8125,1.42436,5.38585,-2.38882,-0.379486,-0.0165401,0.234842,-22.6875,-32.3888,30.0934,35.125,18.2792,-2.36018,0.533228,-0.973463,1.31477,-3.95764,-49.2111,-31.0223,11.0353,2
transient activities,95.0,34.5,-2.81841,5.68942,-8.33459,-0.0524482,0.0149588,0.0175833,5.8557,-11.2933,15.1574,38.125,1.88336,8.8757,-3.94069,-0.0792198,0.0325988,0.0213217,-5.54605,-22.1449,8.18068,35.375,9.73744,-1.41831,-1.33533,0.0600751,-0.0241783,-0.00751697,-0.703335,-5.7829,25.5136,2
Nordic walking,119.0,30.625,-4.20521,4.19062,1.00212,-0.623036,-0.901394,4.16522,9.33738,-33.0822,-24.0022,35.625,1.6746,4.74154,-2.88557,0.0423602,0.00648488,0.130749,7.46424,-31.9196,15.3518,34.25,10.9924,2.59886,-1.38598,0.283073,0.33109,-1.35142,-38.3116,10.3214,17.5761,2
lying,63.0,31.25,0.594809,4.67661,8.61591,0.0049116,-0.0121657,-0.00176191,-5.2639,16.0352,-32.7278,34.125,0.732764,2.04112,9.34197,-0.0365306,-0.0337699,-0.0112713,35.2621,4.84106,-32.9268,31.0,-1.0329,-8.61074,-5.02857,-0.0162445,-0.0415213,0.0133885,-12.3047,29.7955,-6.18667,7
Nordic walking,123.0,30.3125,-5.46412,4.09343,1.75334,-0.802439,-0.818461,3.02413,0.302978,-34.9252,-34.5656,35.25,0.279882,6.29233,-2.52867,0.611716,-0.521141,0.338291,6.6592,-39.4011,5.52328,34.0625,10.0274,1.84212,-0.966698,0.717375,-0.0286582,-1.53483,-37.5515,16.803,26.0559,2
lying,69.0,34.25,6.52976,-2.29078,6.91941,-0.0318345,0.0500192,0.00227241,-39.9044,-5.80658,-15.5963,37.375,0.915419,-0.520161,9.31488,0.00497129,0.0236033,-0.041455,34.7982,14.2687,-29.1764,33.75,-0.99085,6.4461,-7.70708,-0.0213348,0.014437,-0.0120955,-15.1968,8.44006,37.654,8
ironing,71.0,33.875,-6.18671,-0.625234,8.03188,-0.0727616,0.105304,0.421321,10.347,3.15225,-50.7914,36.8125,-1.25481,9.5398,-1.90877,0.0177812,0.0221338,-0.0128958,4.26181,-38.9277,-2.01403,32.875,9.47902,-2.20555,-2.37502,0.000483623,-0.026462,0.0324794,-33.4874,2.68134,45.6808,7
running,81.0,32.5,-6.91055,3.39088,-1.69133,0.11388,2.10428,1.81271,11.7931,-62.9081,2.75532,36.8125,-1.40537,8.39166,0.841421,-0.651857,1.2803,-0.784243,-9.35131,-61.0219,24.1025,32.0,23.295,-10.6772,-3.06832,-1.86482,1.09916,-0.246247,-35.2117,-34.5316,14.6567,7
transient activities,110.0,28.25,-2.07822,9.1859,1.40201,0.128751,-0.0637626,-0.0410832,5.75496,-25.8454,-3.63066,36.4375,-0.637583,9.887,-0.3886,-0.0325141,0.00325849,-0.0165713,-1.73083,-21.1666,9.46567,34.375,9.91235,0.246544,-0.765028,0.0179878,-0.0341317,-0.0148107,-25.6337,6.55317,26.8394,3
ironing,84.0,34.0,-7.70626,1.04105,6.34854,-3.61555,0.539191,0.528602,18.8161,-9.58297,-47.188,36.375,-1.6241,9.12099,-2.76596,0.0114594,-0.199941,-0.191272,6.30948,-37.9714,-2.14621,35.0,9.80604,-0.504323,-1.7262,-0.0164489,0.0120585,-0.0625202,-28.9255,15.1937,43.6967,6
sitting,82.0,35.0625,0.229627,-9.37034,3.15413,0.0235175,-0.0319424,-0.00299294,3.82497,27.2317,-8.40499,37.0,0.164809,5.04547,7.88924,0.00917227,-0.0480148,-0.0288892,5.62675,-8.26574,-19.5222,34.1875,9.08591,-3.07228,-2.87533,-0.00209968,0.00391558,-0.0192332,-37.2016,5.25534,26.2338,5
transient activities,103.0,30.75,-2.90302,-6.08691,6.90638,-0.0610043,0.0108035,-0.0060593,27.7707,30.6583,-24.3533,35.3125,0.666121,9.80946,-0.0936821,-0.0123765,0.00803968,-0.00896285,18.9674,-32.9101,14.1286,31.3125,9.295,-0.331293,-3.93212,-0.0110785,0.0127791,0.0170622,-31.3751,17.0538,21.8438,8
transient activities,101.0,33.1875,-6.56676,3.01167,2.85661,-0.392109,0.757286,0.372186,57.4934,-39.7365,13.9122,34.8125,1.25778,7.09664,-5.61124,1.43855,1.48502,-0.208659,-47.2352,-32.1673,34.3792,33.5625,10.7733,1.54463,-2.30784,2.28227,-0.445336,2.08898,-59.726,-51.1124,48.5357,1
ironing,85.0,34.75,-0.107412,-11.4597,2.57882,-0.600977,-0.196408,-0.707498,-17.9618,31.9813,-26.2372,37.875,-0.888847,9.9955,-1.16792,-0.0172341,0.104211,0.014851,-8.23741,-38.8457,-9.29268,34.625,9.48081,0.0481707,-4.04834,0.0784342,-0.0579202,-0.0582003,-42.6852,-20.5547,0.147311,8
transient activities,92.0,34.5625,-10.1169,3.02007,0.686597,-0.0663992,-0.106089,-0.65582,32.7225,-25.9688,-5.67676,38.1875,1.51763,8.78762,-5.99924,-0.022469,0.0306552,-0.133921,-5.56298,-30.4867,4.00151,35.375,9.76887,0.180312,-1.8466,0.153647,0.00712348,0.179717,-32.2396,7.02056,42.6183,2
vacuum cleaning,115.0,34.625,-7.88818,-4.58159,1.16899,0.401956,-1.06438,-2.23903,28.9435,22.2861,-17.2184,38.1875,3.87448,5.83486,-7.18601,0.752359,-0.994437,0.498733,12.6858,-25.7218,21.3763,34.625,9.93188,0.414327,-2.73394,-0.244964,-0.0623431,0.105544,-0.00366649,14.6036,27.2048,8
sitting,76.0,31.75,-0.0478635,3.88619,8.7629,-0.117594,0.00703435,-0.0754391,0.977025,-12.5235,-27.9668,34.625,0.19709,9.30768,3.42306,-0.0111051,0.0664304,-0.0164257,4.39229,-17.7429,-8.45576,32.625,9.08152,-3.92896,-0.245971,0.0462622,-0.00336738,-0.00735816,-22.835,-0.222244,14.3663,3
lying,72.0,34.1875,6.45231,-2.17705,6.84089,-0.0224085,0.00712992,0.0177229,-40.1364,-6.53931,-16.3788,37.25,0.991648,-0.520399,9.31626,0.00474315,-0.0135992,-0.0284702,35.3212,14.5081,-29.8792,33.6875,-0.950235,6.63507,-7.63066,-0.00724591,0.0271256,0.00460306,-14.9397,8.94557,38.789,8
vacuum cleaning,86.0,33.125,-6.2398,5.31596,2.00701,-1.08121,0.383652,-0.354956,37.3854,-8.76496,-27.5332,36.5625,-1.91745,9.45448,-3.70166,0.359064,0.3096,-0.350421,19.895,-35.3909,7.44561,34.0,9.47727,0.418778,-2.93157,0.00594655,-0.0515268,-0.152072,-43.2366,-4.11203,20.9282,3
cycling,128.0,31.375,-3.48205,7.48369,9.19966,0.764681,0.184756,0.431481,-0.491025,-31.4161,-58.4746,35.5625,-1.27651,6.79045,-7.55348,0.0539304,0.262161,-0.209079,-1.72754,-60.1271,29.761,33.625,10.6526,4.98683,-0.632497,0.00897243,0.305146,-1.2807,-66.9701,-15.1587,18.5289,1
ascending stairs,117.0,33.375,-9.22461,2.96176,-0.800848,0.553367,-0.12289,1.04883,42.7589,11.1249,-16.5226,36.6875,0.734351,11.5384,-0.523996,0.136829,1.24355,-0.132298,5.83456,-24.0504,21.4602,35.0625,10.9538,12.106,-3.2205,3.70598,-1.01046,-0.656267,-51.3121,-5.67576,10.0279,6
transient activities,136.0,33.5625,-10.7374,-1.76092,0.116121,-0.0180753,-0.0462281,0.230806,37.4282,16.9964,-12.7416,37.75,-2.49846,9.56444,1.12757,0.260811,0.365162,0.098946,21.624,-30.5339,-8.56809,33.5625,9.34202,-0.182226,-3.62384,0.243758,-0.134642,0.215648,-31.5378,12.201,32.4862,8
vacuum cleaning,100.0,34.0,-2.05805,8.56667,4.29095,-0.0896462,-0.609565,-0.402479,31.8368,-25.8939,-17.3258,36.75,-0.650638,8.98966,0.543383,0.190459,-0.667106,0.129136,5.91728,-37.9737,13.7846,35.1875,12.6817,3.15708,-1.29494,1.78847,-0.799225,5.47085,-26.3811,-8.07816,9.97661,6
transient activities,160.0,28.625,-9.70581,-2.67611,-3.71408,1.16906,0.511328,0.760654,51.3566,4.08836,26.9536,32.1875,-0.373891,7.38694,-8.00372,0.521625,-0.756104,0.696692,8.27042,-53.6226,27.3474,30.4375,3.5164,-7.4227,-0.551488,-0.703996,-1.18704,0.0126518,-48.6462,-13.5788,0.200401,2
transient activities,95.0,34.9375,-10.2442,2.18427,0.456586,-0.709847,-0.118268,1.32411,40.0665,-0.407265,-32.4575,36.75,0.661888,9.64048,-2.80368,0.49928,0.703697,0.0885185,16.3365,-43.3856,11.6317,34.1875,9.96944,-0.194372,-2.61401,0.11132,-0.374291,-0.475431,-49.9907,-17.0287,-19.1716,5
walking,123.0,31.1875,-7.13136,1.94642,2.04351,0.419537,-0.192991,-3.00031,11.7327,-37.4744,-14.8187,36.1875,-2.32007,8.67193,-8.23676,0.552826,-0.169668,-0.486969,0.97089,-35.7442,5.19675,34.3125,14.0332,-2.81212,-1.32122,-3.42577,1.00104,-2.40732,-38.3016,-6.66047,16.8997,2
cycling,128.8181818181818,31.375,-1.35232,3.07633,6.16744,-0.144767,-0.0306567,-0.360278,-4.58195,-40.5512,-48.9207,35.5625,-0.843649,7.46083,-8.4384,0.373305,-0.219407,0.281793,-4.83555,-58.7893,29.2254,33.625,7.99506,4.73756,-0.619613,-0.0491782,0.0841225,-0.966254,-63.9709,-20.5753,19.6844,1
transient activities,123.0,28.875,-4.01859,6.43403,5.92374,0.0132005,-0.073392,0.0765872,33.4878,-22.256,-12.6268,34.25,0.406025,9.45563,-2.4205,-0.0134539,0.0778626,-0.0493048,5.2843,-21.5796,21.3013,32.75,9.71452,0.527728,-2.50533,0.0213394,0.0176782,-0.0214057,-32.106,-14.6145,10.5314,4
transient activities,122.0,32.125,-3.79431,3.87467,4.2038,0.261763,0.0541242,-0.00629454,45.8568,-22.6932,-49.6567,35.6875,0.175067,7.01858,-0.984089,0.0115602,0.20745,0.124015,16.0437,-46.0633,-7.1087,33.5625,12.2874,14.7526,-2.87594,-0.103248,0.0497699,3.59192,-60.0656,34.4502,22.1482,4
vacuum cleaning,97.0,35.3125,-7.42219,6.94101,0.251886,-0.214946,-0.0171495,0.0186025,11.7332,-23.4405,5.14073,37.6875,0.337966,-0.161781,-10.2895,0.222107,0.0356521,0.126717,-10.4717,-0.628758,28.1229,34.3125,9.63061,-0.582608,-1.30303,0.0477823,0.12406,-0.015612,-6.60913,15.7541,43.6327,5
lying,64.0,31.25,0.447663,4.67879,8.72916,-0.0235667,-0.00993473,0.00629415,-5.51497,16.5446,-33.2553,34.125,0.694003,2.22925,9.30193,0.0200597,0.0283425,-0.0325183,35.2798,3.67971,-32.9201,31.0,-0.918623,-8.65006,-4.94997,0.0210885,0.00742969,0.00528066,-12.7039,30.1996,-6.8977,7
ascending stairs,165.0,33.9375,-13.8656,-1.17629,-0.894893,0.611901,-1.80448,-2.22174,47.4404,28.5011,-10.207,37.9375,-0.765844,7.63773,-4.52675,-0.523531,-0.154334,0.362902,24.7794,-39.8282,11.6703,33.875,8.87168,-4.88845,-3.48369,0.564686,-0.238539,-0.756551,-28.698,10.548,43.8447,8
transient activities,90.54545454545456,29.875,-10.7391,2.5561,-0.822166,-0.060758,-0.0972832,0.0163582,44.7186,0.961839,-26.3073,32.0625,1.75684,11.9275,1.81652,-0.113509,-0.0477436,-0.120409,10.7799,-35.8398,21.4205,29.75,13.8982,2.98592,-4.52293,-0.935214,0.624536,-2.23965,-43.8238,-8.03858,-9.65763,7
vacuum cleaning,96.0,33.1875,-2.62824,10.2549,1.65957,0.961141,0.0713905,2.68984,24.271,-12.5851,-35.178,36.75,0.745796,9.36981,-3.80802,0.169153,-0.342679,-0.34708,20.7043,-33.1625,-7.00329,34.125,9.67939,-1.14587,-2.10941,-0.0662127,0.256368,0.0412582,-36.0724,21.4654,-5.34624,3
walking,120.0,33.1875,-12.4133,6.93236,3.3716,0.18104,1.06118,0.381125,71.8925,27.4816,-6.24363,37.25,1.7651,17.0498,-3.54347,0.0102853,-0.0523426,0.292397,-23.3088,-55.5,42.4331,34.6875,8.20415,-54.3393,-14.9149,-0.15491,0.376674,-1.01105,-62.0742,-3.19667,35.4504,1
transient activities,141.0,30.875,3.17173,-9.32971,-2.42109,-0.20959,-0.10703,0.0608932,11.7865,44.057,-7.0796,34.0625,-0.659509,9.67376,1.4703,-0.0102565,0.0120889,0.0279604,3.00033,-42.2522,15.0576,31.6875,9.5989,-0.535324,-2.42274,0.00400376,0.00492563,0.0170283,-43.4367,15.0167,0.245235,8
vacuum cleaning,111.0,33.5625,-12.6028,6.85794,3.36902,0.554407,0.169446,-1.1243,32.6474,-24.5344,-32.278,35.5625,-2.38706,5.24986,-7.60732,-0.376186,-0.175183,-0.0592653,12.6431,-42.7147,28.2865,34.4375,9.72039,-0.89165,-0.721344,0.00455911,-0.522229,0.179087,1.80269,-12.7944,-10.2299,1
transient activities,135.0,33.8125,3.19605,7.769,4.56478,-0.137806,0.00309365,-0.0240232,-35.3842,-14.8976,-43.1994,36.75,-0.170787,9.84133,-1.34802,0.0342321,-0.00745583,-0.0775471,-4.24459,-45.0645,-31.7909,34.9375,9.81775,-1.01278,0.0907874,0.00498927,-0.0156433,-0.00206774,-17.4801,29.9316,22.566,1
transient activities,113.0,30.6875,-3.25563,7.83982,2.58202,0.188626,0.581098,-0.165714,8.29345,-47.5087,-5.97634,35.6875,-0.183313,7.25333,-5.40553,-0.531922,0.286305,-0.0340207,-11.2494,-43.865,9.16801,34.25,16.9651,20.6732,7.8246,3.49561,-1.06001,-0.673828,-31.0614,45.8901,20.0004,2
cycling,81.0,29.75,-4.32064,1.41774,4.78151,0.51504,0.0675296,-0.225658,30.5941,-12.9258,-23.5698,35.3125,0.309395,7.92851,-5.55368,-0.123479,-0.119121,-0.361562,0.959639,-10.081,30.7942,34.3125,9.73274,3.16287,0.25695,0.135455,-0.215455,0.483224,-28.5179,-4.20743,20.3183,6
running,172.0,30.625,-10.7431,20.5176,0.810626,1.36423,4.30043,5.10362,54.2259,-87.9065,-16.5433,33.75,4.49106,19.7666,-6.94908,-0.764773,1.85246,-0.893547,7.45269,-80.378,72.285,33.125,12.302,6.99575,-6.14636,-1.04561,0.320333,-1.68902,-59.2125,-67.9055,-1.53044,1
running,123.0,30.9375,-12.2147,17.2041,-6.08948,-0.367464,3.24617,0.0609579,-12.8465,15.19,-45.9618,34.125,2.02929,-2.65265,0.784661,0.0336186,-0.911336,1.04597,-10.0368,-39.8118,-8.5947,31.75,4.52214,-2.18603,-5.62891,3.99394,1.36823,1.11479,-46.9331,4.0167,9.18112,8
transient activities,103.0,33.0625,-8.90188,3.70366,1.81863,-0.718089,0.305277,0.11352,41.9191,-40.9374,-0.156991,37.5,0.107715,9.06427,-4.74789,0.103023,0.140215,0.0976986,-16.9766,-45.4563,8.58865,35.0625,9.9587,-2.28741,2.64705,-0.556063,0.0701339,0.057916,-54.0672,18.9831,38.8397,2
transient activities,96.0,33.125,-6.47453,4.92842,5.12228,-0.0661089,0.00510881,0.00288177,52.5888,-37.5673,-42.8873,35.0625,0.615126,9.69377,-0.52016,0.0159176,0.0654461,-0.00709841,-6.59729,-38.5129,-15.3463,34.25,9.25698,-0.444962,-3.9318,0.0267565,-0.0277722,0.00023902,-34.694,27.3192,41.393,6
transient activities,90.0,33.9375,8.38229,3.39431,3.61806,-0.0734138,-0.000786333,0.03602,-14.7126,-34.4787,-54.0556,36.75,1.75732,9.65229,-0.538054,-0.0265065,-0.0109917,-0.0720872,23.9887,-48.6828,-2.3854,35.1875,8.11837,-3.04635,-5.31656,0.0234966,-0.0264363,0.0356912,-37.0588,20.1079,44.5134,6
walking,122.0,31.75,-8.61274,1.89848,-0.364735,-1.1913,-0.349595,4.15974,42.8933,-4.60011,-20.8391,36.5,0.917509,5.13017,-1.46787,-0.349163,-0.129999,0.389307,10.3807,-24.5784,32.8121,34.5625,8.69459,0.830406,-1.59152,-0.83673,0.17029,-0.870627,-37.854,-13.0353,5.44042,2
walking,125.0,32.9375,-7.59758,6.4633,1.82885,3.97876,-0.79439,-2.61727,77.4307,14.4192,-5.52202,37.125,0.773899,4.15424,-1.08009,0.197806,-0.122449,0.361157,-11.1032,-60.3721,41.8763,34.5,6.71838,-1.54415,-2.21448,1.76867,-2.28467,3.70572,-34.5069,-65.3496,-18.9105,1
descending stairs,107.0,34.8125,-5.06069,2.15565,1.80441,-0.254232,-0.264428,1.49246,48.9426,-31.0172,-3.81247,37.875,3.0834,8.52616,0.612538,-0.0169623,-0.727717,0.00442963,-29.7309,-42.3194,1.15282,33.9375,6.96943,3.9712,-3.63536,-0.752454,-0.818429,-1.36965,-58.7129,-14.6192,39.0879,5
ironing,82.0,34.0625,-2.91577,7.41198,5.93696,0.0287057,-0.0283572,-0.237612,5.44004,-38.3859,-20.4774,36.5,-0.30699,9.63982,-3.36332,-0.130754,-0.260907,-0.0182638,-11.6633,-33.5851,13.9193,35.0625,10.4153,0.0318796,-2.7652,0.25761,0.0060689,0.199674,-33.2197,-5.71047,42.2875,6
rope jumping,181.0,30.1875,-26.2714,11.9484,8.99718,0.226158,-0.765905,-2.6403,66.5302,-23.6007,4.60861,33.8125,2.67663,33.3806,-10.3175,0.336785,-0.220717,0.299289,-34.8718,-53.3116,28.6545,33.1875,15.5173,12.0077,0.685866,-0.425885,0.208147,1.0907,-41.567,-38.0138,44.0709,1
transient activities,90.0,33.9375,-8.99423,3.53878,0.278303,-0.316349,-0.563568,-0.108989,21.6404,9.36302,-3.78028,37.9375,1.10374,8.22568,-5.77258,-0.139869,-0.29924,0.0416679,3.76989,-20.0371,12.4925,35.1875,9.78043,-2.24606,-2.2945,-0.379946,0.355376,0.0429365,-14.5712,9.86165,-28.0498,2
sitting,75.0,34.3125,-2.77575,-5.62983,7.21465,-0.0232877,0.0242229,-0.0285302,9.54485,12.8887,-30.1141,37.625,0.490516,9.85108,0.406374,-0.0139924,0.00635685,-0.0419031,5.88497,-25.3154,-3.77207,33.875,9.20404,2.69461,-2.44684,-0.016782,0.0246943,-0.0245912,-19.1918,16.0709,25.5754,8
transient activities,138.0,30.375,-8.53784,2.09807,5.02395,0.210547,0.00746508,-0.0276884,76.5827,-8.29652,-37.6983,34.0,-1.89201,6.37714,-7.71818,-0.16306,0.209021,-0.0962004,3.61374,-38.5774,85.2764,33.1875,9.42687,-1.85878,-2.95655,0.00564135,-0.124186,-0.0408954,-44.4056,-31.274,8.88904,1
ascending stairs,165.0,33.75,-7.98815,3.83152,4.17961,-0.478505,0.329631,-0.244379,24.5595,-15.1908,-36.9453,36.3125,-0.786118,11.2081,-5.54547,0.564487,-0.0175946,0.0858149,21.0192,-36.1518,13.2228,34.8125,4.11017,9.76885,-0.0346544,-0.169176,-1.04643,3.59722,-52.7442,22.5027,-14.3584,1
sitting,81.0,32.9375,-2.56499,4.99797,7.83624,-0.0173563,-0.0185196,-0.00560024,9.93799,-18.774,-25.5922,35.0625,0.77616,9.76175,-1.52421,0.0235409,-0.0204391,0.0196656,3.44728,-24.4584,2.6923,33.8125,8.72166,4.53839,-0.0320823,-0.0133884,0.0216475,0.00374778,-3.06464,-5.46755,23.5296,4
sitting,88.0,34.9375,-9.56385,0.607958,2.97377,0.935555,-0.454015,0.568513,31.3104,-18.7978,-25.3729,36.8125,-2.63045,8.06694,-3.2067,0.139395,-1.11422,0.101783,12.7278,-32.4088,1.67398,34.125,9.36957,1.31414,-5.56233,-2.90962,-0.252992,0.530787,-9.54615,6.83732,26.3292,5
transient activities,154.0,33.625,-6.60637,1.9804,6.28487,0.0202895,-0.0345817,-0.00562709,4.04433,-13.8588,-12.3557,36.75,3.27256,9.43713,1.77463,-0.0420715,-0.147438,0.0104205,-5.40527,-10.7039,-11.9708,35.125,7.79403,0.841509,-6.92619,0.0377783,-0.0507502,-0.0558769,-23.0364,6.35806,28.5516,6
vacuum cleaning,94.0,33.125,-8.58596,-3.53865,2.61754,0.486713,-0.425364,0.620397,30.6127,1.20908,-27.9268,36.625,-3.23506,4.84515,-6.61462,-0.29815,-0.532566,0.636437,16.0697,-24.1178,10.5898,34.0,7.32579,-0.116139,-0.866482,-0.569116,-0.167689,0.536172,-5.28105,8.94082,25.5844,3
walking,96.0,33.0625,-13.910150000000002,4.30523,1.048805,0.7115585,-0.368382,3.30159,56.1119,25.98045,-25.1698,38.125,0.421424,10.6721,-0.720454,0.342387,0.0947597,0.0302652,9.96174,-56.459,35.4913,32.3125,9.82163,-0.04187,-2.57788,-0.048347,0.00658156,-0.993762,-60.46,-23.6531,2.21586,7
sitting,79.0,32.125,-1.5605,3.17803,8.85809,-0.0680465,-0.0220867,-0.0414725,5.30063,-9.59159,-30.0679,35.1875,0.487038,9.26571,2.92507,0.00913729,0.0223624,-0.0233101,4.40778,-18.4262,-7.10809,33.0625,9.55876,0.612455,1.19714,-0.0135425,0.0153414,0.0202307,-14.2259,-4.87257,17.7121,3
cycling,81.0,29.75,-6.35633,-0.0227419,7.37302,0.217079,-0.0208247,0.0333179,31.0237,-6.4973,-25.9719,35.375,-0.206217,7.08887,-7.45762,0.0399554,0.0822999,-0.058855,0.301074,-9.41217,31.0679,34.3125,9.39448,2.26348,-0.937214,-0.000764935,0.0170965,0.00058737,-27.369,-10.7045,19.4789,6
transient activities,127.0,34.625,3.21915,9.4302,-0.559299,0.908083,-0.317366,-0.151897,-2.71823,-36.9526,-13.1205,38.375,2.25726,9.45484,-1.65126,-0.0378796,-0.0601658,-0.00464304,5.01874,-36.004,11.7931,34.25,9.59651,-0.57265,-2.49971,0.0205814,-0.00875142,0.00985401,-17.4497,6.81298,15.3804,5
transient activities,91.0,31.5625,-2.45299,8.18538,-0.486113,-2.41952,-0.754816,0.121418,6.77631,-30.7905,-12.9539,34.25,-1.52891,9.66938,0.4091,-0.00181603,-0.180924,-0.0607191,4.38379,-27.1311,-8.22341,32.25,9.77576,0.444486,-1.65522,0.0742281,0.0162293,0.0173191,-3.0273,-5.46101,15.6338,3
sitting,72.0,33.5,-0.295653,8.18056,5.0884,-0.0672512,0.00527231,-0.0205246,4.24619,-22.6871,-22.1449,35.875,-0.387562,9.7406,0.352104,-0.0351659,-0.0275871,0.00473175,6.50771,-25.4688,-2.35683,34.75,9.7026,-0.913794,-2.65087,-0.00486028,0.0214058,0.00928213,-18.8067,-3.55982,11.2745,6
transient activities,92.0,34.25,-10.6432,-2.07936,-1.45938,1.17827,-1.17248,-0.188507,38.7944,9.71378,-30.5478,37.5,-1.1744,10.2555,-1.8322,-0.139186,-2.11785,-0.230161,0.789866,-35.83,-5.15787,33.8125,9.24473,0.156348,-3.16387,-0.629101,-0.423151,0.605302,-36.2351,13.2199,36.5817,8
walking,123.0,31.25,-13.0712,2.65388,3.79955,0.814009,0.767846,-4.39134,16.5154,-39.6337,-20.7989,36.1875,-0.502298,8.41765,-5.99591,-0.59362,-0.616315,0.927024,5.48113,-39.3734,-5.404,34.375,1.17737,-10.1298,-2.02508,-1.45457,-0.99934,1.42406,-41.6102,-4.83427,12.7378,2
transient activities,132.0,27.5625,-8.63496,4.23243,1.78235,-0.0457145,0.0264721,0.00634457,55.0592,-19.4353,-11.1129,32.8125,0.822855,9.69707,0.0644065,0.0684733,-0.108438,-0.0341308,-3.11401,-54.2695,6.62303,32.6875,9.67352,1.30618,-0.15662,0.000705766,0.034354,0.022022,-41.6154,0.0183284,9.34629,4
transient activities,90.0,34.8125,-8.46699,-2.93216,2.65576,0.368403,0.0980046,-0.119633,47.0806,-0.517633,-9.11171,38.125,2.32989,9.5378,-0.488588,-0.160486,-0.46197,-0.0820022,-18.3218,-33.2077,11.3328,34.8125,8.48999,0.22827,-2.09155,-0.865404,0.112384,0.721561,-37.3806,8.86803,-17.739,8
Nordic walking,130.0,34.625,-7.38157,18.0869,3.48632,0.535282,-0.0249676,2.35278,40.7777,-21.5357,-23.6695,38.375,0.935154,17.2951,4.45593,-0.419117,-0.369932,-0.183022,13.0295,-37.8554,19.6146,34.25,25.7026,-68.4295,18.7706,1.00294,-0.876949,-2.9064,-45.5686,4.97358,7.48282,5
sitting,91.0,32.9375,-2.58882,6.3554,6.86911,-0.0122119,-0.0227286,-0.00984692,8.4462,-20.4298,-22.8233,35.125,0.841996,9.72152,-1.87137,0.00463895,-0.0174339,-0.00503692,2.53588,-24.5545,3.39153,33.875,9.63265,1.91585,-0.39236,-0.00472313,0.000876194,-0.00902802,-7.15289,-6.04074,21.9558,4
cycling,126.0,28.8125,-9.56076,-1.30321,5.6359,-0.532192,0.10261,-0.0744262,75.9184,36.164,-10.3112,34.0625,-0.0413673,3.84619,-8.02491,-0.529909,0.116514,-0.238347,41.9722,-11.8908,67.328,32.75,9.71467,2.87463,-1.63234,1.20132,0.313529,-1.78794,-45.2836,-23.0607,-20.4246,4
transient activities,97.0,34.0625,-0.37813,-2.36742,9.2409,0.0401717,0.0220934,0.0348996,18.2365,-5.07271,-29.7603,38.0,-0.440247,9.85031,-0.15258,0.0215066,0.0131076,0.056985,9.32821,-26.8893,23.0516,33.9375,6.77383,-7.17755,-0.519604,0.0303982,0.033698,-0.0133542,-16.9575,19.7234,-7.7515,8
vacuum cleaning,95.0,33.1875,-4.97417,5.00559,-6.09382,3.21919,0.906029,0.09242,33.6637,-28.529,-13.9319,36.8125,-1.37267,7.33052,-5.69838,0.405737,0.489365,-0.285984,30.8169,-29.8359,7.74141,34.1875,9.63888,0.376328,-2.50517,-0.0450418,0.387697,0.00946052,-2.37472,22.7316,-7.46502,3
transient activities,168.0,30.25,1.22138,8.84954,-3.58928,0.177135,0.0504412,-0.234801,5.63507,-73.4838,11.9435,33.875,0.251805,9.80314,-1.22407,0.020651,0.217056,-0.0384389,10.7182,-72.9527,18.2877,33.1875,9.03331,-3.87686,-1.94473,-0.049306,-0.00445528,-0.0462191,-86.1902,44.5828,-9.64091,1
walking,114.0,31.0625,-11.9082,2.14915,-0.684355,-0.184734,-1.27728,0.90416,19.2009,-33.1012,-16.2458,37.0,2.29982,13.1611,0.738161,-0.278107,0.172314,-0.148898,-8.95097,-30.1081,-0.58477,34.625,14.5943,-2.02774,-0.162646,-0.136394,-0.384863,-2.5952,-31.616,-1.40446,35.5917,3
vacuum cleaning,77.0,34.125,3.41689,0.400212,8.0953,-0.683861,0.976532,2.5714,-13.0912,15.8326,-32.5795,36.625,-2.14725,8.6157,0.207718,0.0191029,2.12462,-0.51116,9.99519,-26.7423,-17.4128,35.125,8.87486,-0.282232,-0.309311,2.90449,0.621834,0.0848011,-29.5744,30.9431,3.53766,6
Nordic walking,136.0,32.5625,-12.3144,11.1146,8.63175,1.08717,0.499918,0.973129,57.2397,12.5665,-49.6348,37.0,0.249001,16.9524,-1.98306,-0.409993,-0.792408,0.381771,26.9841,-63.3863,12.5411,34.3125,8.63979,-50.166,-14.8591,1.0098,0.374152,-3.83048,-53.3522,45.1719,-8.29408,1
walking,121.0,32.9375,-7.57205,-0.528119,0.736687,2.32731,-1.37743,-2.62758,41.3389,2.64165,-11.219,37.4375,0.0135275,5.03132,0.181073,-0.0557631,-0.032786,0.464731,-1.65893,-28.6643,11.7049,33.125,9.20693,-0.337649,-3.08401,0.936416,0.119846,0.335655,-31.5225,20.9059,15.8818,8
standing,76.0,32.75,-9.1458,2.65045,2.62676,-0.0563613,0.0158688,-0.217241,31.4059,-16.8071,-10.2935,35.3125,0.578801,9.50614,-0.442767,-0.0310185,0.0170722,-0.0458117,0.763198,-32.0871,-7.01236,32.1875,9.62575,-0.874709,-2.72908,0.0151241,0.00328207,0.0501272,-10.4471,-7.84575,9.03956,7
ironing,93.0,34.75,-4.24944,-7.92985,3.31311,-0.267118,-0.218275,0.0665778,17.1107,25.6362,-34.2749,38.125,-0.511332,9.91822,-1.277,-0.0238501,0.0688438,0.0882497,0.295354,-38.1259,-12.0575,34.75,9.19732,1.41437,-3.75101,0.214373,0.0414108,-0.11284,-36.6894,-26.0006,1.16754,8
transient activities,115.0,32.625,-5.01315,6.79535,-5.40767,-0.0280444,-0.091324,-0.00056972,45.7392,-5.52044,10.8686,35.625,0.0902017,9.66853,1.05797,0.0619203,-0.0730178,-0.0762929,22.4994,-33.9489,19.5173,33.5,9.30769,2.72376,-1.44263,0.0212243,-0.0384373,-0.0258709,-18.5631,-20.986,-0.0509965,4
transient activities,104.0,33.1875,-8.74584,4.14841,0.780303,0.501105,-0.217948,-0.0478823,45.9052,-35.1462,13.8629,37.5625,0.993948,8.80029,-4.38249,-0.164489,-0.389685,0.188854,-20.7291,-44.5124,4.6105,35.0625,9.58762,-0.798213,-2.76853,-0.20311,0.00325867,0.0046515,-38.5969,15.0599,60.8277,2
walking,96.0,32.5,-8.87685,4.85588,3.3931,0.400234,0.202538,-0.0498308,48.0676,-9.1229,5.7677,36.6875,0.00132561,12.5171,-0.927667,0.109969,0.120552,0.0630876,-11.7653,-38.2023,-6.7828,35.0,11.7977,14.9741,-1.72465,-1.32514,-0.207132,-0.302766,-27.1415,32.8342,31.0595,6
sitting,79.0,34.9375,0.48466,8.85039,-4.13914,0.00289397,0.433778,-0.202977,1.99516,-22.2978,8.69679,36.8125,0.387439,9.93801,2.06922,-0.00506156,0.54546,0.113246,2.55843,-23.7711,-6.48307,34.125,9.73971,-1.2015,0.0139792,1.10287,0.354365,-0.376974,-30.9731,3.60744,9.37957,5
ascending stairs,117.45454545454544,34.6875,-6.95767,2.62283,1.46652,0.726533,-0.362397,1.82715,18.0832,-16.9825,-36.6431,37.9375,1.06848,5.4304,-1.54355,0.319163,0.124599,-0.0893094,16.6678,-34.2112,-16.9009,33.8125,8.78487,0.846804,-3.67453,-0.321907,0.305493,0.621609,-45.3164,7.48103,-11.0992,5
transient activities,143.0,30.875,-9.77033,-1.18475,1.74513,-0.0840867,-0.0161177,0.00279734,39.5826,10.6802,-7.45842,34.0625,1.17315,9.84816,0.302587,-0.111734,-0.0126406,-0.0099995,11.5279,-35.9817,7.46709,31.6875,9.8039,0.142749,-1.92318,-0.0143515,-0.0387624,0.0472921,-24.6666,9.7796,26.1308,8
ascending stairs,170.0,33.9375,-9.42077,-1.61137,1.02055,0.0163654,0.0301463,-0.0211363,32.4208,11.792,-29.6289,37.9375,-0.0995031,9.84872,-0.223843,-0.0305435,0.13241,4.20208e-05,-0.532253,-28.0379,-10.2875,33.875,9.45243,-0.752787,-3.58058,-0.0234967,-0.00296689,0.0223961,-24.1664,1.01593,31.5323,8
transient activities,95.0,34.5,-9.09607,-1.59832,2.7573,-0.105128,1.31237,1.86283,33.3961,-13.6803,-0.73655,38.125,1.62067,8.71558,0.0820505,0.0321359,-0.680948,-0.304316,9.89219,-27.8106,20.9457,34.5,9.59151,0.183377,-6.74931,-2.12016,-0.552159,-4.95181,-21.5127,23.9416,-7.77242,8
vacuum cleaning,108.0,34.625,-4.04705,-1.22332,6.6804,-0.0289859,-0.0978948,0.604179,4.60245,9.79289,-43.3398,38.1875,3.73915,9.44916,-1.77928,0.255529,0.84334,-0.048004,6.27262,-33.7123,-3.8627,34.625,8.23273,-2.42856,-6.66986,2.61837,-2.02511,-2.46784,-9.65547,-14.9919,43.9413,8
walking,112.0,34.625,-6.75526,2.19838,0.855186,-0.895792,-0.650246,2.21781,54.3012,-37.7702,-24.3858,38.1875,0.898037,8.86871,0.107182,-0.0936404,-0.260213,-0.18279,0.307096,-61.774,32.4932,34.125,10.3922,0.0386254,-3.57586,-0.33611,-0.468567,-1.51888,-46.8477,-22.9833,22.9705,5
walking,112.0,34.625,-5.09402,2.09109,3.03572,-2.08671,0.908524,-0.419663,19.7201,-45.0965,-8.26102,38.1875,0.225414,13.2216,-2.43601,-0.364131,-0.072675,-0.370712,-17.8274,-38.1328,17.1454,34.125,27.2637,-10.8489,0.986763,-2.96059,-0.50484,-3.59079,-21.4703,-24.5798,41.7834,5
transient activities,112.0,33.125,0.47334,7.33508,4.56395,-0.71554,2.37363,0.210405,-1.71052,-41.3461,-7.58419,37.6875,1.72308,9.38987,-0.382937,0.204959,0.864288,-0.209971,-14.3157,-35.4202,12.5013,32.0625,9.12303,1.93636,-2.52014,-0.0246716,0.288298,-0.375047,-38.2477,-36.9618,12.3795,7
cycling,124.0,29.1875,-6.13297,2.9849,4.47967,-0.0279394,-0.326908,-0.111788,28.2854,-21.3275,-16.5701,33.5625,-0.433681,3.79847,-9.69686,0.282009,0.173697,0.222944,-10.9436,1.42353,28.8463,32.5,12.3442,0.0578883,1.88517,-0.26349,0.527009,-2.19941,-21.3942,-18.2554,22.7029,2
standing,92.72727272727272,35.0625,-8.75047,4.11915,1.74252,-0.175456,0.41506,-0.431521,37.5851,-12.1754,-13.7461,37.0,2.22799,9.34407,-1.34166,0.39217,-0.105714,0.225618,-2.79847,-34.9219,-7.02105,34.25,9.70757,-0.382876,-2.57693,-0.0556958,-0.244506,0.116938,-31.8335,-7.40704,14.3534,5
transient activities,118.0,34.6875,-11.35,5.6867,9.24182,-0.721968,-0.124644,0.233286,42.0669,-0.13294,-19.4712,38.25,-2.22743,7.82741,-5.0185,-0.591874,0.636716,-0.226067,12.737,-29.8513,22.1052,34.375,8.80509,0.0589957,-0.196376,0.336419,1.8201,-0.0919,-19.2813,2.29229,-20.5043,5
transient activities,191.0,30.8125,-0.243614,-10.4701,2.80437,-0.107162,0.118721,0.0544779,15.4214,34.0578,-9.3885,34.125,1.2954,9.81196,0.575966,0.18479,-0.234653,-0.0257992,6.44381,-35.6688,10.9551,31.6875,11.4809,-0.805808,-3.28932,-1.40707,-1.22158,-3.13811,-21.4154,13.8371,16.3511,8
transient activities,104.0,33.1875,8.96507,3.6395,1.85555,1.47437,0.169163,-0.066961,-46.0069,10.6519,-10.3983,37.5625,0.237326,9.21789,-4.24267,0.0615346,0.0520182,0.0100154,-20.688,-42.8568,6.69718,35.0625,9.66631,-1.76116,-1.14099,0.0516072,-0.0215639,-0.0185431,-46.4943,14.6628,53.4613,2
lying,75.0,33.75,6.84294,2.67089,6.21459,0.00883592,0.0401274,0.0116758,6.62252,1.72765,-44.6585,37.0,1.36858,3.50395,8.80664,-0.018925,-0.0142777,-0.0365266,30.7547,-2.47038,-27.4024,34.625,-0.443169,-9.30705,-3.8991,0.0378897,-0.0264818,0.00579459,-13.0038,23.5012,-3.90408,2
transient activities,132.0,27.9375,-7.67665,5.4197,-4.5962,-0.189723,-0.932014,-0.326458,53.6682,-10.9198,-7.22472,33.25,1.80401,9.72062,-1.54417,0.340487,0.314573,-0.146629,-13.8273,-34.6818,28.998,33.875,9.85677,-0.269597,-2.61469,-0.0419123,0.120353,0.231467,-39.9299,-14.5527,30.0766,6
walking,121.0,32.9375,-14.8666,-2.224,-0.136606,1.16175,-1.39325,-2.87728,48.3338,-12.6094,9.33156,37.5,-0.0892019,11.5821,-0.0356859,0.000125343,-0.437032,-0.0129943,14.3058,-41.2596,23.4499,33.125,11.0903,-1.40708,-3.75267,0.587302,-0.00870588,0.932212,-31.1113,28.1093,20.6972,8
walking,118.0,33.0,-16.8626,-3.25746,1.33799,-1.27906,-0.541657,-3.06299,61.1816,13.0013,-8.43487,37.5,-3.63664,14.1339,-3.01232,-0.0573981,-0.343655,0.0202914,20.2394,-50.1989,-23.4125,33.1875,17.0605,-5.14375,2.93056,1.59278,0.210504,2.35327,-37.4372,-11.4224,42.2793,8
running,157.0,30.9375,-8.44636,-6.06183,0.626797,0.340161,0.591707,-2.49053,2.2805,-49.8608,-32.8976,34.0625,-0.186105,-2.42979,-0.727595,-0.422107,-0.435988,-0.267431,19.4872,-55.4715,5.32848,33.25,7.53586,-4.12871,-7.16812,0.214538,1.31889,-3.0084,-61.7138,-18.5163,-17.1982,1
standing,91.0,34.6875,-8.04256,-3.15064,4.0484,0.2155,-0.108606,-0.024686,43.7234,0.395196,-25.252,37.6875,-0.364488,9.82109,1.12668,0.00574506,0.0695377,-0.00766892,-4.65891,-37.6969,-0.95505,34.5,9.05354,-0.40099,-4.51301,0.0132102,-0.000270671,0.0177915,-37.723,-1.84276,11.6315,8
sitting,80.0909090909091,35.0625,-1.95933,-9.44799,1.04329,0.0187803,-0.0372599,-0.0107468,8.63107,26.9787,-3.16391,37.0,0.128535,5.30942,7.92644,0.0229832,0.0315372,0.00593814,4.99139,-9.27447,-19.0978,34.1875,9.08862,-3.18715,-2.75882,0.0275003,0.0203296,0.0164468,-37.8523,5.41402,25.3803,5
transient activities,113.0,28.375,-1.63055,9.24691,0.138423,-0.912218,0.297536,-0.0112627,6.2842,-25.2752,0.419933,36.5,-0.152487,9.84547,-0.728165,0.0197982,0.0728836,-0.0438456,-1.96966,-21.5287,13.2615,34.375,9.91523,0.58794,-0.728528,-0.0120109,0.0168662,-0.0545861,-28.4365,0.325008,29.7665,3
lying,76.0,32.625,4.82928,0.317226,8.5401,0.00236683,-0.00393455,-0.00487182,20.1092,6.97478,-50.4406,34.5625,-0.370272,2.04509,9.39941,-0.0273218,1.90208e-05,0.016813,40.7399,4.37679,-28.9379,33.25,1.96333,-9.52037,1.79957,-0.016808,0.0224379,-0.00885762,-20.2637,16.0079,-13.8576,4
transient activities,118.0,32.6875,-3.58851,12.2191,4.06327,-0.3258,-0.120998,-1.83621,26.6828,-53.2542,-6.01741,37.0625,0.728818,11.013,-5.82716,-0.539436,-0.560064,0.0799287,-13.8873,-50.1143,30.0804,34.375,16.4127,-3.74602,-0.364873,1.54748,-0.448011,-2.91669,-30.181,-23.2688,7.99164,1
sitting,77.0,33.9375,0.210805,6.59972,6.94871,-0.625496,0.266114,-0.209911,-1.24688,-26.2217,-18.9464,37.375,0.630038,9.41623,-2.5712,-0.193563,0.0943721,-0.208406,-1.79985,-21.4513,4.19339,34.6875,9.17896,-2.96399,-2.25762,-0.0202692,-0.0362483,0.035484,-14.103,-3.06165,22.3102,2
ironing,114.0,33.5625,-2.91842,2.53556,7.95471,-0.279962,-1.93242,3.7721,40.1142,-47.2071,-51.2024,35.625,-1.71437,6.67466,-8.18058,-0.586366,-1.02367,0.783789,-2.48137,-40.1181,17.5454,34.25,8.92048,3.4037,-0.717614,-0.403437,0.0555541,-0.0284703,-43.8746,-5.71127,36.4349,4
Nordic walking,129.0,34.6875,-3.8787,7.86918,5.30519,0.375479,0.41286,-1.75885,44.2618,-22.0837,-8.45029,38.4375,-0.510718,12.6077,1.07625,0.315289,0.278605,-0.0495099,2.0918,-36.0392,25.3093,34.3125,7.52662,36.7856,-9.96903,-0.834673,0.350095,3.05164,-44.3548,11.7583,14.8545,5
transient activities,138.0,31.5625,-5.14922,7.72022,0.283304,-0.0907066,0.699483,-0.391987,24.9712,-39.3454,-39.062,36.6875,0.914551,9.92612,0.568695,0.607267,0.815531,-0.0543675,13.0149,-41.2869,-19.1436,34.4375,5.71015,7.34907,-2.51155,-0.156115,-0.493625,-0.591476,-59.3233,17.4276,-5.07537,3
transient activities,157.0,34.0625,-9.05276,2.79596,2.01186,0.0222688,0.0124726,0.0610944,20.7033,19.1943,-19.4027,38.0,0.868146,9.37126,-3.53476,-0.0126642,-0.00389925,0.0104606,11.3328,-17.2372,20.8238,35.25,9.68622,-1.52812,-1.79825,0.0188651,0.0165932,0.0179646,-28.4823,-24.3262,8.3378,2
transient activities,116.0,32.375,-7.01392,5.83643,-4.08735,0.015671,-0.0250611,0.00882509,6.98456,-35.3433,12.834,35.125,0.0791624,9.81655,0.67008,-0.0245445,-0.011234,-0.0270676,-13.4827,-28.5888,-13.0535,33.25,9.39705,2.75708,-0.940251,-0.00846037,0.0172453,-0.0104598,-24.5143,28.3205,29.2301,4
transient activities,101.0,33.1875,-8.18852,3.10932,-0.362465,0.778994,-0.459408,1.25399,28.7525,-23.6611,-48.7732,34.8125,1.82422,9.00146,-2.08356,-0.0133684,-1.03615,-0.0577826,30.7956,-56.1628,15.1828,33.625,9.63879,0.148195,-2.46516,-0.199967,0.299642,-0.428968,-92.7485,35.3089,-33.5755,1
ironing,81.0,33.0,-5.85462,7.03867,4.0468,0.287122,0.0495174,0.0523798,5.30685,-46.335,-33.01,36.3125,-1.31691,9.69377,-1.44574,-0.0723559,-0.0709974,-0.0349921,3.09541,-32.4548,-7.88241,33.875,9.71863,-0.179325,0.393315,-0.25242,0.0811794,0.0556677,-39.8866,17.177,29.0497,3
walking,122.0,33.4375,-5.0286,6.09266,0.829425,4.36645,-0.0572982,-0.84118,55.675,-32.3721,-17.4658,37.25,-0.658444,4.1624,-0.563975,-0.103649,-0.0243069,0.448664,-19.246,-60.5995,-13.4077,34.8125,11.8711,-1.33452,-3.93806,2.4552,-2.02517,5.7313,-61.5656,-2.16007,30.7537,1
walking,116.0,32.0625,-3.69246,5.25021,-7.30704,-0.015145,-0.0446142,-0.0130985,15.0287,-7.97227,16.8511,35.6875,0.731088,9.58964,0.837512,0.0361311,0.00196823,-0.0252639,-4.51818,-27.3904,4.34558,33.625,9.67329,0.643156,-2.66083,0.0333393,0.0197141,-0.0189918,-22.8116,-5.40955,14.8084,4
lying,71.0,34.75,0.840114,7.00806,6.49491,-0.0347576,0.00676743,0.0125363,-9.63702,8.69868,-32.8057,36.4375,-0.297327,1.6678,9.32452,-0.00837369,-0.0493542,-0.00850518,39.1832,4.69174,-28.5275,34.0625,-0.455383,-9.11335,-4.3635,0.0709981,-0.00477563,0.0179014,-14.186,28.4744,-5.76626,5
sitting,77.0,35.0,-0.446871,7.09319,6.39837,0.65144,-0.179887,0.0823207,3.91745,-22.3013,-28.0521,36.9375,0.581193,9.4113,2.22933,0.0572013,-0.00922354,-0.0354998,4.62415,-23.8471,-6.75028,34.1875,8.74418,-2.94395,-4.38463,-0.0573881,-0.0743537,-0.00199475,-36.1991,2.90385,31.6296,5
sitting,83.0,31.625,-1.68215,6.87854,6.76547,-0.00341033,0.0263018,-0.0265323,6.71506,-20.3382,-24.0014,34.625,0.0255048,9.84203,-1.15086,0.0135673,-0.0533542,-0.0107634,5.54932,-25.6952,1.3039,31.3125,9.18469,-1.43392,-3.65628,0.0078742,-0.00520888,-0.0043255,-5.32883,-7.19224,11.6098,7
ironing,72.0,33.625,-0.626905,6.78414,5.62697,1.66121,2.07237,2.71846,-14.0902,-59.954,-57.3144,36.5,3.57232,8.76903,-2.20602,-0.0505601,-0.145637,-0.377935,-14.1577,-33.7296,-6.40183,32.75,9.30459,-0.181989,-3.62423,-0.0280024,0.0404919,0.0424852,-26.3721,1.1854,51.6645,7
transient activities,139.0,30.8125,-8.55478,-4.52649,-1.72774,-0.368153,0.310871,0.782571,35.5454,-7.21795,-0.780094,34.25,1.87278,-3.21232,-9.63229,-0.0785907,0.244114,0.0565562,-33.127,17.2404,18.9806,31.8125,9.66256,0.472803,-0.383098,-0.119891,-0.0828274,-0.0148425,-39.0248,-6.83407,-0.281225,8
ascending stairs,130.0,35.0625,-10.9519,5.60212,4.39866,0.382891,-0.198098,2.32849,29.8961,-16.5074,-53.2051,37.8125,2.58733,14.4934,-2.55224,0.518764,0.121525,0.335059,28.1583,-46.1556,23.4331,34.0625,4.36462,4.76533,-5.9052,-0.406911,-0.272492,-0.51444,-57.8028,-26.995,5.34939,5
transient activities,134.0,33.25,-7.2518,3.65954,2.57475,1.27109,0.335912,-0.826298,45.8032,-0.97282,-48.8697,37.6875,0.23581,7.36227,-0.248407,0.585183,0.353727,0.0219013,34.1449,-43.8953,-5.86703,32.0625,14.1444,-1.3188,-2.95011,2.57624,-2.74824,5.5539,-53.7448,4.95823,-5.02715,7
sitting,90.0,32.0,-3.44521,8.57047,3.50041,-0.0170415,-0.0427178,-0.00387051,73.2112,-30.8183,-5.84555,33.8125,2.2649,7.42712,-6.36849,-0.0362172,-0.00663534,-0.0145635,6.22043,-15.5704,64.8765,32.4375,9.63456,2.07808,-1.6668,0.0200403,0.0256171,0.0290806,-62.1555,-70.0144,-51.5355,1
transient activities,125.0,32.0,2.06036,9.2726,2.00253,-0.0131235,-0.0265546,0.0334687,-29.9965,-50.2225,-11.4692,36.6875,0.507915,9.64936,-1.56742,-0.0411844,-0.0209595,0.00130749,-16.3911,-56.0694,-6.00357,34.0,9.85832,0.012782,0.00765978,-0.0774546,0.0158756,0.00903921,-43.2188,0.0289322,16.3924,1
standing,76.18181818181819,34.5,-9.33192,-0.803538,2.32772,-0.0528034,-0.034484,-0.0458516,46.461,-3.59383,-19.1967,37.5625,-0.191071,9.81661,0.549021,-0.0235649,0.0288881,-0.02479,-3.37971,-36.2038,5.95459,34.25,6.59733,-7.24483,-1.44715,-0.00738711,0.0230311,0.00141334,-20.0402,28.1934,18.1831,8
transient activities,111.0,28.3125,-1.44612,8.97066,3.33657,0.286162,-0.524513,-0.199295,5.69332,-26.7838,-6.53328,36.5,-0.96137,9.81717,0.264018,0.0986418,-0.261762,-0.204232,-0.444701,-22.6848,11.9347,34.375,8.93767,1.8396,0.179829,0.974803,0.0622107,-0.4604,-27.9223,-6.05219,26.7236,3
transient activities,137.0,33.8125,-9.2264,3.77617,1.15923,0.277678,-0.0141432,0.144624,34.7594,-35.3621,-24.4921,36.4375,1.5436,9.69403,-0.038689,-0.0867939,-0.15927,-0.0132182,13.0564,-40.3955,-18.583,34.0625,9.54963,0.152845,-2.96777,-0.0253268,-0.111177,0.00483394,-44.933,21.5407,4.34553,5
sitting,87.0,34.875,-0.53021,7.31906,6.12695,0.0102216,0.0197605,0.000173674,6.75629,-26.0459,-19.6362,36.8125,0.568811,9.48376,1.80294,-0.0103974,0.0174692,-0.0261354,0.364391,-24.3359,-5.6491,34.125,8.71988,-3.1757,-3.88177,0.0519445,-0.0124648,-0.00348983,-25.9883,2.87612,20.319,5
walking,97.0,31.6875,-10.6544,2.65311,1.60348,1.19294,1.60309,-2.80856,47.8593,6.40008,5.41152,36.4375,-0.717447,8.94565,-0.425708,-0.00284323,0.361982,0.140674,-7.47787,-37.1001,21.0186,34.875,5.94791,1.01477,-3.47313,2.13201,-0.397902,4.05522,-25.6791,-36.2802,19.5145,6
walking,119.0,32.8125,-14.9209,-0.703168,0.16535,1.5438,1.94048,3.37112,39.858,9.27955,-38.1588,37.375,0.484928,11.9108,-1.26542,-0.108643,-0.0722088,-0.0562821,-7.25768,-38.4896,-14.364,33.0,1.46144,2.57362,-4.95663,0.367371,0.29082,-0.0651978,-41.5613,23.6825,1.80193,8
transient activities,88.0,33.5,-6.34951,6.6445,6.19601,0.714886,-1.52819,-0.685675,43.9819,-31.6313,-18.8904,35.6875,0.310584,9.55304,0.791292,0.00672662,-1.31524,-0.388213,3.00748,-45.4793,17.614,34.6875,9.29359,-0.178777,-4.01026,-0.194694,-0.0509228,-0.0171034,-36.1692,-34.8207,31.3898,6
running,164.0,33.8125,1.83679,6.93684,3.66202,1.18881,-2.38069,0.502104,12.0215,-43.4469,-11.6675,36.4375,0.47028,5.5102,-1.16744,-1.11597,-1.26799,1.04863,-10.9813,-39.2633,-6.48932,34.0625,17.394,3.51441,2.49435,-1.37383,0.64451,9.68022,-40.4743,4.91362,29.6266,5
Nordic walking,112.63636363636364,29.75,-3.40234,8.34422,3.69426,-0.0424506,0.0303148,-0.0678569,25.7713,-17.505,-18.9392,35.0,-0.036078,9.47803,0.669093,0.0143491,0.117726,-0.0683662,2.66109,-20.3075,7.45741,33.0625,9.61302,0.905555,-2.2,0.016171,0.0125901,0.014769,-36.379,-9.27211,3.56038,4
Nordic walking,138.0,32.5625,-14.6951,5.65004,6.45923,3.10024,0.129014,0.19363,51.2435,8.67621,-41.6228,37.0,-0.522332,12.8221,-0.628377,0.0213817,-0.126351,0.30264,23.3912,-56.8349,5.75361,34.3125,13.6559,24.2671,2.63594,-1.08758,0.520033,-1.05785,-46.0182,45.1282,-16.2764,1
cycling,130.0,31.3125,5.41499,6.22566,7.87465,0.233912,0.247812,-0.300385,-5.41269,-34.7962,-52.6682,35.5,0.250851,6.24198,-9.96345,-0.0819153,-0.0650184,-0.253661,-7.81465,-52.7116,35.3173,33.625,12.4698,5.9961,-0.0798705,-0.479546,0.0274172,0.468916,-64.8079,8.97542,23.2247,1
sitting,85.0,34.9375,-1.76436,8.15535,5.22044,0.298332,-0.0288645,0.383399,6.714,-25.9162,-14.7814,36.8125,0.555213,9.67758,2.6152,-1.09956,0.0947318,0.319474,1.4646,-23.8639,-2.54203,34.125,9.07847,-0.913297,-2.23279,-0.130812,0.0980848,-1.06638,-15.3532,-5.76809,19.3736,5
transient activities,88.0,33.5,-7.76682,2.92924,5.3021,-0.054374,-1.30928,-0.295924,47.0708,-26.0823,-10.9251,35.6875,0.477238,9.58466,-0.0189315,-0.274446,-0.395706,-0.155113,-2.42893,-44.6349,18.5585,34.6875,9.40103,0.153472,-2.93071,0.13788,-0.222581,-0.0595881,-37.2082,-36.8451,25.8571,6
transient activities,97.0,33.25,-7.95228,1.16014,2.49572,0.237396,-0.0954599,0.103035,32.1455,-27.5369,-36.7388,35.1875,-2.06717,9.05915,-0.992622,0.0557553,-0.196196,0.104557,6.1446,-40.1375,-21.3117,34.3125,8.14014,0.261543,-1.24637,-0.016132,0.249943,0.912568,-60.8921,21.2763,37.6202,6
lying,77.0,31.5,-3.45412,12.4312,2.4481,-0.394233,-0.0613449,1.48632,34.7315,-29.9051,-4.81637,34.0625,0.82706,9.70677,1.49713,-0.0705733,-0.0544957,-0.0392316,4.33621,-36.7436,16.6462,32.0625,9.8289,0.287556,-1.07486,0.0569225,-0.0210311,0.044495,-45.435,-53.6003,23.1414,3
descending stairs,115.0,32.6875,3.10087,-1.28682,5.86399,1.27047,-1.03439,-1.50309,15.8167,0.753128,-47.1134,35.5,-0.921658,11.285,0.182524,0.0787382,-1.27943,0.390855,17.1064,-34.3695,-4.34761,33.4375,9.86771,11.7388,0.745367,-1.58683,0.189956,-1.21351,-63.4883,40.7477,47.8004,4
lying,84.0,34.6875,0.727012,7.04688,6.49309,0.00280137,-0.0249924,-0.0105595,-9.64434,9.31946,-32.9407,36.375,-0.224131,1.8174,9.20919,-0.00478966,0.0295853,-0.0525679,39.0646,4.1804,-28.6665,34.0625,-0.487196,-9.30488,-4.1311,0.188214,0.0141656,-0.019424,-14.0509,27.8223,-6.33235,5
transient activities,101.0,35.25,2.48501,9.10917,-3.14787,-0.0441323,-7.93948e-05,-0.0471345,17.4241,-38.7612,3.38487,37.6875,1.77619,9.72307,-1.1962,0.00923503,0.0362871,-0.0919754,6.88324,-33.8907,21.6643,34.3125,9.6479,-0.00657065,-2.1168,-0.0362915,-0.0279461,0.000859198,-19.3766,-17.9458,12.9912,5
running,169.0,33.8125,5.03947,1.33267,3.49797,0.971775,-1.50624,-0.960701,59.1649,-14.6962,-19.4175,36.375,-1.53424,-1.71384,-1.29644,-0.739971,-1.36118,0.689368,-2.54135,-38.3452,50.671,34.0625,26.6176,37.0105,-14.9456,2.84509,1.68022,7.65607,-43.0524,-16.225,21.4158,5
Nordic walking,124.0,30.25,-6.88821,7.17638,5.80127,-1.45881,0.302345,-3.27206,7.8406,-34.1657,-26.0799,35.25,-4.37585,8.14332,-9.43392,0.648837,0.029749,-0.417143,2.84835,-34.9458,8.78108,34.0625,21.6218,-1.58143,-4.41538,-1.12447,1.51148,-3.28977,-37.3413,-13.3729,12.9831,2
transient activities,179.0,33.8125,4.74327,0.163705,8.26991,-0.0322694,-0.00385926,0.0197462,0.9128,-13.9579,-38.9888,36.375,1.85451,9.64805,-1.11709,0.0210732,0.00948688,0.00212163,-10.2351,-31.3134,11.0963,34.0625,6.13461,6.64161,-4.54806,0.0502099,0.0120949,0.00697653,-11.3333,-17.5711,14.1537,5
sitting,81.0,34.9375,-0.160942,6.71779,7.0967,-0.00430713,0.00501258,-0.00968374,2.90814,-19.891,-30.1643,36.875,0.570154,9.55932,1.84144,0.0463616,-0.0387533,-0.00124085,5.64572,-23.7563,-6.32067,34.125,9.03286,-2.68722,-3.4957,0.0114782,-0.0278125,0.0198919,-35.8225,2.2359,29.7879,5
transient activities,96.8181818181818,34.0,-9.30034,2.30014,1.50949,0.013042,0.0343906,0.0132168,30.7917,-20.8883,-19.7188,37.375,0.495106,9.41192,-3.27061,-0.00325344,0.0291306,0.00137863,-1.17347,-32.2909,1.98185,34.75,9.73312,-1.18889,-1.52975,0.000888395,0.0458147,-0.0408891,-19.7373,0.666309,39.23,2
transient activities,150.0,27.9375,-10.979,6.37595,18.7129,1.58413,-0.547372,0.289031,35.2884,-8.939,3.03659,33.1875,-1.32584,8.19526,-0.318128,-0.122792,0.529096,-0.348615,-5.30521,-25.1759,10.9547,33.8125,9.27595,1.27733,-0.970899,3.45819,-0.478982,-1.21281,-26.9416,0.870448,22.5873,6
walking,120.0,29.25,-14.8617,2.88265,6.58153,-2.60015,2.63644,-3.38793,40.3964,23.3271,-6.50634,36.8125,-0.36693,8.46583,1.16976,0.0831412,0.0610573,0.28799,20.6582,-34.8758,9.41914,34.5,24.2685,10.1597,-12.2176,3.00051,0.864896,5.70627,-44.1215,1.97661,4.90913,3
lying,72.0,33.9375,6.64178,-1.91327,6.80435,0.0133901,-0.00482941,-0.0139483,-39.758,-7.9235,-14.7963,36.9375,0.842023,-0.745066,9.43044,-0.00656242,-0.0248255,-0.00548874,34.9188,14.651,-29.0368,33.4375,-0.945327,6.51956,-7.43694,0.0493759,0.038961,0.00880176,-13.9428,9.40707,37.5155,8
lying,76.0,31.4375,7.39672,0.428766,6.30742,0.0468384,-0.00241995,-0.0986646,7.40492,5.06423,-45.3259,33.9375,0.966761,-0.705438,9.78106,-0.0665864,0.0158067,-0.0647533,31.3637,9.24758,-27.9903,32.0,0.447477,-10.3586,-1.33653,0.406669,-0.113887,0.0539975,-15.2445,23.2539,-4.25972,3
sitting,79.0,34.9375,-0.504451,7.12639,5.82009,-0.0264154,-0.0544935,-0.0603581,3.29866,-23.1362,-26.9959,36.875,0.699068,9.44937,2.3475,-0.00421547,-0.0404886,-0.00167595,4.86876,-22.6951,-7.03712,34.125,9.06718,-2.64852,-3.61136,-0.00657799,0.0221353,-0.00331937,-35.708,2.48559,29.0789,5
transient activities,129.0,32.5625,-3.3228,7.4235,-5.80783,-0.0704607,0.0824754,-0.0389642,5.72017,-49.2917,23.2885,35.375,1.01221,9.81784,1.30651,-0.145085,0.266715,0.0310875,-11.4228,-46.0841,-4.6206,33.4375,9.42966,0.155805,-3.23915,0.061417,0.000586445,-0.111263,-62.6899,13.016,43.8641,4
sitting,105.0,31.9375,-1.67092,9.75844,2.13744,-0.024621,0.122323,0.041467,0.70938,-62.7474,20.101,33.75,-1.43071,9.46846,-1.40835,0.0123048,0.264632,-0.0747767,0.517784,-54.8147,39.3634,32.375,9.77558,-0.0117792,-1.57521,0.0577717,0.0122124,-0.0300262,-83.4647,-39.4193,-55.7384,1
ascending stairs,103.0,34.6875,10.5222,4.73632,-1.39626,2.20322,1.29833,-0.161371,-22.5411,-47.8108,-17.4764,37.875,2.66882,10.2972,0.599271,0.138968,0.986111,-0.409219,39.8492,-50.1709,-2.4076,33.875,11.5841,0.831269,-3.91586,0.304921,-0.309072,-1.9781,17.5646,-0.279783,-51.1493,5
transient activities,99.0,33.375,1.3108666666666666,5.73918,-7.631453333333334,1.403727333333333,-0.688823,1.088736666666667,33.69306666666667,-10.141966666666669,34.17763333333333,37.6875,0.634453,8.19553,-4.89041,-0.299753,-0.055322,-0.0592034,-20.0521,-32.7967,28.4167,35.125,9.62519,-2.26487,0.135173,-0.012817,-0.0415626,0.0204867,-53.2864,-14.9683,34.5103,2
transient activities,81.0,30.75,-0.316403,9.67927,-1.26738,-0.896018,0.302021,0.0793382,-0.905247,-31.993,-11.7216,32.6875,-0.442159,9.70811,1.08692,-0.0380692,-0.0838341,0.0600048,-0.704527,-27.1604,-10.8748,30.8125,9.68242,0.0700931,-2.23269,-0.00010291,-0.129749,0.0937406,-5.26005,-6.69163,14.5249,3
ironing,89.0,32.6875,-5.73155,7.40918,3.16218,-0.210923,0.726673,0.059379,12.0639,-27.7432,-28.3736,35.875,-2.62433,9.08436,-3.09373,0.101327,-0.136863,-0.146504,8.71342,-32.2647,-0.319657,33.5625,9.6682,-0.137264,-0.0705379,0.128029,-0.00459436,-0.000852564,-34.0984,15.2425,34.7993,3
Nordic walking,125.0,29.25,-8.82345,9.03523,4.07257,0.727101,-0.268138,0.288524,37.1716,-33.2434,-4.30005,34.5625,0.30954,9.59044,0.752431,0.366884,0.0877697,-0.122454,-11.5969,-39.8842,-7.61811,32.9375,23.1247,15.4051,-7.3996,2.22762,-0.440675,4.87511,-29.8812,33.6029,27.0776,4
transient activities,150.0,28.8125,2.25406,9.97116,-4.53978,0.576911,-2.55948,1.88546,-6.33673,-32.8649,-4.03075,32.3125,0.159603,8.65333,-4.24224,-0.176179,-0.608332,0.523001,17.5846,-31.539,10.1125,30.5,9.65249,-1.45291,-1.6833,-0.642342,0.559086,-0.443454,-37.8006,8.086,-6.83638,2
ironing,91.0,34.375,6.41882,9.64049,4.52977,-0.0218153,-1.0215,0.88697,-29.1269,-21.4484,-2.02649,37.6875,0.0849637,8.39051,-4.1653,-0.0575015,-0.330483,0.329571,-9.12394,-32.2568,2.84189,35.125,9.5511,-1.26525,-1.33819,0.913167,-0.355805,-0.0454055,-38.9489,8.27208,32.5366,2
cycling,123.0,31.5625,-9.06559,10.7398,11.9916,0.0425777,-0.0575322,-0.392959,-9.18954,-50.4104,-31.4992,36.0625,0.207665,5.05427,-7.44351,0.0303079,-0.224053,-0.175424,-25.027,-49.9856,32.2405,33.75,11.9734,4.32889,-0.113204,-0.370438,-0.0093173,-0.551262,-57.3387,4.96855,39.4596,1
ironing,90.0,34.75,-5.94684,-1.79773,8.65523,-1.04125,-0.220724,0.558582,36.8968,-8.68259,-41.1934,38.0625,1.83904,9.41876,-1.62,0.0185645,0.242994,0.00858457,-24.2223,-32.9801,1.98415,34.75,9.82011,0.300811,-2.69579,0.0416806,0.0369428,0.0213664,-42.6329,-10.4175,-10.3598,8
walking,101.1818181818182,32.5625,-9.38736,4.21102,2.96426,1.47549,0.555327,-0.704575,40.6979,11.3849,21.5373,36.6875,1.52714,9.0882,-0.54039,-0.0859137,0.266959,0.0952403,-17.3816,-36.3464,19.6764,35.0,19.8784,29.0756,-0.494429,-0.49744,-0.546083,4.11308,-38.6849,8.8385,37.4291,6
walking,116.0,33.3125,-10.721,-3.66874,3.16331,0.503223,-0.0488059,0.528319,37.1637,-15.0102,-18.19,37.625,0.817774,12.6775,0.906488,0.365375,-0.470277,-0.204054,-7.47609,-34.3727,2.81359,33.3125,13.1532,9.13447,0.98817,-2.06122,0.780976,3.63459,-32.4851,-4.95227,6.26387,8
vacuum cleaning,94.0,33.1875,-6.81047,3.14967,-3.11305,2.19205,0.269545,0.229756,19.9093,-35.8591,-8.06692,36.6875,-0.76755,9.30185,-3.44801,0.293116,-0.0719771,0.00403542,-1.60608,-36.7808,5.76914,34.0625,9.30667,1.46919,-1.2419,-0.0506793,0.385342,-0.14261,-39.932,-9.70485,17.8708,3
Nordic walking,138.0,33.0,-5.71719,10.2239,-0.272473,0.149913,0.176973,-2.18804,-8.32732,-43.9759,-14.5101,38.375,-0.753778,13.7918,-2.10712,0.0438459,-0.420128,0.211817,-3.08945,-37.995,-17.722,32.4375,6.8585,-0.815067,-7.92883,0.133909,0.396086,-3.23468,-37.1064,-25.7907,21.5897,7
transient activities,90.0,33.0625,-6.28924,7.52825,-0.964721,0.0138994,-0.0185858,-0.0277553,36.6262,-32.3427,0.0262448,38.1875,0.566888,9.60758,-2.14703,-0.00689703,-0.00602676,-0.00305226,2.6775,-38.1135,15.1729,32.3125,9.55753,0.188565,-2.69779,0.0307878,-0.00841224,0.000431189,-58.4827,23.0593,28.1239,7
transient activities,85.0909090909091,30.125,-9.50882,2.56181,0.889689,0.0248485,-0.0602584,0.0303699,49.0206,10.0636,9.19267,32.5,1.56028,9.80194,-0.774436,-0.0442115,0.0381933,-0.0040979,-2.36523,-36.0087,30.0723,30.0,9.47041,-0.263693,-3.04318,0.00812391,0.0282012,0.0046536,-52.5386,-44.6611,-2.41237,7
transient activities,102.0,32.9375,-9.60581,4.63144,3.11352,4.28969,-0.626653,1.70222,37.8195,-43.483,-3.72507,37.4375,-0.285419,8.42302,-5.10142,-0.0739776,0.257711,-0.205574,-11.6756,-47.0519,4.86702,35.0625,9.88723,0.281216,-0.341016,-0.0650874,0.0516763,-0.23164,-51.0562,21.4906,41.4412,2
transient activities,142.0,32.0625,-11.9474,3.90098,0.00192046,4.20104,-0.934028,-1.49751,44.1408,-0.756358,-3.79986,36.5625,0.512935,10.3856,-4.04787,0.375869,-0.253154,0.149131,-6.7862,-30.6922,18.692,34.625,16.8152,30.2068,-1.84491,1.00324,-1.79972,4.34869,-33.5644,17.7463,35.9357,2
cycling,132.0,31.1875,-6.22109,2.89804,7.40368,-0.503389,-0.203471,0.0272036,28.4571,-5.50632,-47.626,35.875,0.138688,8.37642,-6.21649,0.0691664,0.422343,-0.532222,12.2391,-42.7164,9.62535,32.0,9.39843,-5.21817,-0.697796,0.374716,-0.356847,-0.328843,-38.8798,12.4212,26.645,8
Nordic walking,136.0,29.5,1.6406,3.31907,2.01633,0.400434,0.251942,0.132256,-26.9574,-37.4152,-41.2835,34.875,-0.293522,6.3865,-0.0224997,0.327196,0.130342,-0.157977,21.7797,-42.1151,-38.3942,33.0,14.0115,3.80011,-2.0185,-0.930842,-0.279534,4.46262,-41.1694,33.8254,-1.0451,4
sitting,81.0,32.9375,-2.55291,6.46826,6.7923,0.00729925,-0.0327245,-0.0207775,8.94971,-20.5811,-23.3483,35.125,0.795476,9.56922,-2.14277,-0.0320041,-0.00871252,-0.0303388,3.03469,-23.7994,3.67272,33.875,9.66698,1.95454,-0.508017,-0.0139125,0.0307412,0.0156478,-6.50292,-6.45855,22.2422,4
cycling,116.0,29.6875,-4.83363,5.53561,6.56884,-0.267625,-0.177478,0.360347,9.23053,-24.3499,-42.5392,34.625,-0.451892,1.23545,-10.0761,0.0620438,0.10487,-0.179057,-1.2669,-28.6452,31.2815,33.4375,13.088,5.074,0.781163,0.497734,0.0268966,-0.0689052,-30.7531,26.406,24.2461,2
vacuum cleaning,89.0,35.4375,-4.81585,2.13034,3.42463,-1.73303,-0.128841,-0.837085,18.6151,-4.48366,-46.2999,37.625,3.50117,8.82555,0.541692,0.102616,-0.596192,-0.380317,19.9629,-36.4099,-3.89314,34.375,9.56528,1.25104,-2.62712,0.0239462,0.0806722,-0.401286,-60.3497,-28.454,-8.55742,5
sitting,75.36363636363636,33.5,-0.22676,8.1783,4.897,-0.0173403,-0.00129142,-0.0175778,4.35883,-22.0724,-21.7552,35.875,-0.119317,9.85299,0.395319,0.0199882,0.0139665,-0.0486457,6.42294,-26.3665,-4.18538,34.75,9.67037,-0.762967,-2.49778,0.0148963,0.0553368,-0.0171308,-18.6798,-3.82532,10.7079,6
standing,101.0,33.1875,-8.81613,3.0618,2.24544,-0.0801627,-0.00344485,0.00492889,30.9778,-22.616,-9.07631,35.1875,1.04172,9.58999,1.03674,0.0163602,0.00201246,-0.0288778,-1.53065,-27.3536,-12.8364,33.875,9.62666,0.570025,-2.96957,0.0420426,-0.0291497,-0.00130914,-1.96612,0.290452,30.0511,4
walking,125.0,32.5625,-9.62729,-1.13176,-0.677608,1.09133,-2.30225,-3.67128,49.3164,8.43247,6.18363,37.1875,-0.400365,4.46939,0.407727,-0.0892379,0.210313,0.617309,21.3338,-37.779,23.479,32.875,9.27635,-1.59141,-3.03693,0.857318,0.172041,0.388715,-35.8302,33.8798,20.3903,8
ironing,90.0,35.3125,-2.03054,2.53354,8.50684,-0.432084,-0.110322,-0.546256,-19.3597,-26.7793,-45.8253,37.375,-0.329291,9.56826,-2.8214,-0.199131,-0.578374,0.363829,-1.31863,-39.1034,-6.98701,34.4375,9.61569,1.1983,-0.851156,0.374501,-0.712146,0.00733994,-48.1717,20.1098,31.8512,5
ascending stairs,109.0,34.25,-5.23021,1.76372,0.263698,1.97053,-0.705846,1.88913,28.2517,-35.7439,-3.87926,38.125,-0.092372,4.03768,-2.02471,0.0872177,0.403886,-0.201361,-16.9442,-35.143,17.0609,35.375,7.3137,1.37042,-1.57044,-0.412878,0.162817,0.508961,-42.3244,7.22442,28.9635,2
descending stairs,141.1818181818182,33.6875,-5.7917,2.51833,3.52417,0.238497,0.109949,3.12034,62.5675,-17.4759,28.5601,36.9375,-0.221405,4.68319,-1.29345,-0.320337,-0.0357888,0.118132,-34.8597,-31.6523,30.6451,34.875,17.4422,6.23227,-0.261881,-0.603111,-1.86774,5.51991,-32.4359,-46.1036,22.2486,1
transient activities,159.0,34.1875,-6.41343,-2.50854,5.14828,-0.647902,-0.249074,-0.917039,30.902,11.1516,4.49842,38.0625,-0.00109711,10.5886,-2.12179,0.0452844,0.312838,0.350568,0.456284,-22.4299,18.1705,34.125,9.34853,-2.32429,-1.68101,-0.343003,0.39582,0.283673,-7.01643,16.5026,-14.9462,8
descending stairs,169.0,33.75,-2.06127,9.0582,4.09681,1.02069,0.712673,-0.172324,25.2869,-25.201,-31.8537,36.9375,-1.09837,9.31445,-1.75032,-0.123029,0.353249,-0.2628,26.3564,-36.5189,-2.75442,34.875,9.84251,-1.54168,-0.252982,0.0303352,-0.0171825,-0.0571571,-35.678,44.4675,14.7005,1
transient activities,143.0,33.8125,-6.87193,3.86603,4.77353,2.56438,0.335809,2.61069,26.7564,-10.3671,-29.483,36.375,-0.695316,9.10119,0.309886,0.17993,-0.290104,0.238017,14.3211,-26.0264,8.41704,34.0625,12.2201,0.132156,-2.47718,1.16879,1.49543,4.30913,-29.0426,0.0191475,4.0009,5
transient activities,119.0,33.5625,-4.59272,5.27231,7.03519,0.0343626,0.0488854,-0.0202964,-0.998689,-9.74127,-10.4019,36.75,1.96609,9.61819,0.0853745,-0.0132547,-0.00969604,-0.0217733,-3.84815,-13.3424,-10.253,35.125,9.09914,-1.58243,-4.00354,0.0255594,0.0362375,0.0512514,-28.2265,16.0127,27.6712,6
Nordic walking,128.0,30.125,-13.9167,4.19975,1.97276,-1.46952,0.523304,-1.96906,45.856,-14.0159,-38.2181,35.0625,3.2761,6.26467,-10.7219,0.854618,0.415792,-0.255478,20.6767,-48.1735,9.40146,33.9375,6.1385,9.96419,-11.5919,0.620113,-0.173845,-2.59438,-50.964,30.1164,-2.40904,2
ascending stairs,114.0,33.8125,-3.55489,7.06715,5.00485,-0.0731733,0.283204,0.323445,-21.4054,-28.0967,-44.5433,36.8125,-2.52701,9.27705,-2.39562,-0.120339,0.108605,0.0279014,-11.8444,-54.3363,-16.5965,34.9375,9.93614,-0.890502,-1.02785,0.0127946,-0.0660823,0.0171732,-25.1246,-14.5232,67.8287,1
ironing,90.0,34.3125,-8.4074,1.34524,10.0318,-4.95065,0.047239,-2.2037,-16.6732,-83.9835,-69.5029,37.6875,3.03423,8.07482,-4.88526,0.242829,0.398011,-0.181871,-26.1938,-37.2053,19.7371,35.0625,9.58804,-1.14057,-2.68922,0.101974,-0.0691462,-0.0424889,-36.7251,6.7484,41.7856,2
standing,77.0,34.4375,-9.3518,-0.154925,2.71011,-0.0543633,-0.0783642,-0.0589869,45.1541,-7.61969,-19.8258,37.5625,0.492505,9.73864,0.484217,0.041872,0.0622268,-0.00734881,-5.82489,-36.1134,5.79606,34.1875,6.67128,-7.20701,-1.48521,0.0447891,0.0271428,0.0267968,-19.8089,28.9523,17.4739,8
transient activities,110.0,34.375,-13.0155,4.62744,3.90918,0.0727353,-0.31414,-2.35698,48.9081,-0.736079,-4.38973,38.0,-0.283772,12.3808,1.04238,-0.169893,-0.940596,-0.194369,-10.6069,-37.6243,16.0647,33.5,11.6901,1.09859,-4.18656,-0.588323,-0.186295,-1.14587,-29.6739,-12.4646,38.4784,5
sitting,71.0,34.3125,-2.93108,-7.23012,6.33251,0.69458,-0.0462051,0.110596,9.8937,14.9793,-30.6524,37.625,0.35213,9.5537,0.908205,0.0542801,0.0145785,-0.0368397,5.77713,-25.31,-5.04189,33.875,9.16531,2.6572,-2.48559,-0.00217025,0.00150719,-0.0168928,-18.5562,16.0384,25.294,8
transient activities,139.0,33.5625,-6.01469,3.4214,6.71223,0.0209075,-0.00782971,0.0236549,3.65165,-14.3321,-9.20243,36.75,2.08387,9.61861,0.20367,-0.0149281,0.191781,-0.0129388,-5.15643,-13.8118,-8.56736,35.125,7.15681,5.0834,-5.14534,0.0213081,0.0146817,0.000622816,-21.8807,-6.70656,27.2944,6
transient activities,113.0,33.5625,-5.53946,6.77445,4.47577,1.05636,-0.910638,0.371519,12.4579,-9.97594,-29.194,36.75,1.53836,9.5887,1.08447,-0.0471523,-0.0864038,-0.0399969,-2.27402,-13.2696,-12.0755,35.125,9.022,-1.80944,-4.04151,0.00518009,-0.0620448,-0.0088043,-27.8515,16.3803,27.6721,6
transient activities,165.0,33.6875,-9.91493,-1.11718,-3.53003,0.825179,0.0629412,-1.00638,33.1457,21.434,-27.9828,37.875,-0.496463,9.92159,-0.773365,0.648996,0.0589218,-0.402656,21.0627,-33.9851,-18.1407,33.625,9.12182,0.654506,-3.63129,0.285904,0.267786,0.293581,-48.9955,1.55931,14.1408,8
ironing,77.0,33.5625,-4.09922,1.02737,7.9806,0.558655,-0.238385,-0.787294,9.20247,11.9027,-47.0364,36.4375,-1.48665,9.49342,-3.30677,-0.004301,-0.128636,-0.0185286,6.78882,-39.1532,1.10693,32.6875,9.46265,-1.33686,-1.80173,-0.0509331,0.0175819,0.0280307,-34.1891,-1.15061,44.1226,7
ironing,75.0,33.6875,-1.89067,-3.88065,8.41511,0.120636,-0.116967,0.245374,-1.87266,7.89785,-53.5513,36.5625,0.376016,9.49522,-2.15013,-0.0237287,-0.141867,0.0537444,-1.22971,-37.5602,-6.00812,32.75,9.38717,-0.603009,-3.27346,0.0171717,-0.105645,-0.0887432,-29.236,3.12645,50.2339,7
transient activities,127.0,33.8125,1.55946,9.42547,1.68661,-0.0293793,0.00556095,-0.00414431,-19.6107,-34.6798,2.35106,36.5,0.175178,9.65277,-1.22497,-0.000225637,-0.0207713,-0.0376403,-22.0187,-36.3958,1.53744,34.875,8.98347,-3.72089,-2.40928,0.035142,0.0474974,0.000179233,-39.0708,10.1988,20.5516,1
walking,112.0,33.25,-9.86317,-2.75104,0.478943,-3.08728,1.29829,2.43509,46.6372,-0.88033,-29.8433,37.625,0.475725,4.69231,0.384153,-0.184659,-0.428597,-0.593135,-4.92368,-37.2839,-16.4697,33.25,9.51856,1.37876,-4.28774,-1.88251,-2.00099,-5.90927,-46.2753,-1.02626,12.8769,8
walking,95.0,32.0625,-10.3357,1.36721,2.34385,-0.0339503,-0.533568,-0.861384,38.1291,-9.22311,-9.30325,36.625,1.58448,10.5889,-1.31865,-0.139713,-0.864968,-0.234711,1.66593,-22.2213,22.6898,34.9375,13.0375,-0.175525,-2.62125,-0.332259,0.161635,-2.17624,-28.4716,-24.5862,8.57008,6
transient activities,116.0,28.0625,-8.93579,3.58032,-3.49272,2.01351,-1.95991,-0.554805,39.3211,-23.088,-5.60556,31.75,0.59406,1.12316,-9.47594,-0.183537,-0.287265,0.189898,-2.76278,-16.4748,37.7719,30.0,9.51578,-1.0648,-2.61326,-0.224505,-0.0376676,-0.15885,-25.8759,5.22327,36.3581,2
transient activities,104.0,31.25,-3.99412,-5.39554,6.88771,-0.0115384,-0.0282725,0.000845677,30.9183,27.884,-24.7366,35.8125,0.789587,9.6519,-1.05896,-0.022416,0.035376,-0.0216855,15.9206,-32.0284,18.4736,31.875,9.09839,-0.669577,-4.20216,-0.0079714,-0.021636,0.00178065,-30.8818,18.4487,22.9786,8
transient activities,197.0,30.8125,4.51379,-8.60571,-0.902423,-0.221925,0.114115,0.0219132,-27.7852,25.2021,0.463894,34.1875,2.43277,9.24256,0.443539,-0.0231426,-0.153783,0.0722702,14.1997,-40.576,-9.69076,31.6875,9.57895,1.98024,-3.59624,-0.350218,-0.0773497,-0.751933,-34.2484,3.98119,37.0249,8
Nordic walking,128.0,29.0625,-9.28736,10.391,6.75516,0.241309,-0.200478,0.443127,68.7238,-2.30324,-23.5802,34.4375,0.486921,11.6653,1.40716,0.232663,0.569186,0.136349,23.8201,-60.7011,26.7286,32.8125,12.9474,29.8762,-4.89251,1.08904,-0.731037,2.43213,-55.1448,10.8559,6.59132,4
ascending stairs,119.0,32.5,-5.76855,5.08726,-6.14448,0.0521464,-0.0201952,0.0102942,2.23038,-28.5072,20.4136,35.1875,0.628006,9.80958,-0.094373,-0.0435451,-0.024269,0.00236209,-12.8336,-28.4834,-13.4726,33.375,9.41958,1.17477,-2.47378,-0.0446169,0.00482246,-0.00200636,-16.9345,32.0631,29.5361,4
cycling,128.0,31.0,-3.33347,1.62022,7.06637,-1.64127,-1.11828,-1.46946,48.6246,-0.49039,-30.3746,35.5625,-1.1541,8.97451,-7.48092,-0.101283,-0.507035,-0.458714,13.3438,-21.5098,39.9696,32.0,5.42698,-1.57928,-1.57149,-1.09847,-0.553077,-1.41849,-32.5543,30.079,9.3433,8
walking,109.0,30.375,-15.1791,1.95273,4.15521,-1.17339,-1.53986,2.60995,47.8342,19.9252,1.26135,35.375,2.84767,10.7394,-6.29125,-0.229792,0.929122,-0.0779952,-3.22223,-40.7506,31.7853,33.1875,10.8155,5.00339,-2.79194,-0.517369,-0.0669259,-1.49826,-46.483,-13.1053,17.1452,4
ascending stairs,115.0,32.5625,-12.9392,4.60748,1.7551,-1.23524,0.142269,1.82283,27.1495,-21.4625,-73.3792,35.25,2.08525,12.45,1.27868,-0.0592676,0.146163,-0.548553,22.0975,-52.5959,-16.7588,33.375,11.1665,-0.0984167,-1.32887,-0.19108,0.301166,-1.47268,-57.6846,23.184,-3.36016,4
ascending stairs,133.6,32.5625,-5.8165,3.10829,1.59744,-1.10633,-0.192622,0.587886,59.8986,-32.8426,-3.29866,35.625,0.487791,6.94414,-0.707134,-0.34885,1.39972,0.188946,-11.6985,-48.8025,14.5695,33.5625,9.18763,2.49858,-1.674,-0.5088,0.438505,0.795667,-33.1755,-0.33136,33.4878,4
transient activities,143.0,33.8125,0.804902,6.68648,4.45564,-0.0691109,0.590607,0.908313,19.1108,-25.3453,-27.0145,36.375,-0.783179,9.88904,-0.158918,-0.165454,0.716615,0.00362365,9.76901,-28.0557,13.05,34.0625,9.19861,2.91367,-1.36774,0.6439,0.617025,-2.00476,-14.3372,-25.398,15.996,5
transient activities,102.0,33.9375,-8.93351,3.06167,2.12822,0.00102119,-0.000240037,-0.0214821,33.0045,-27.1886,-30.5748,37.9375,0.068903,8.80081,-4.74774,-0.0342348,-0.01151,0.0183461,1.20643,-45.7037,5.92234,35.1875,9.578,-1.39787,0.939689,0.0172835,0.0192324,0.030589,-48.705,29.4708,-1.32039,2
transient activities,104.0,33.0625,-8.82175,3.21188,2.05241,-0.173911,0.0695699,0.28348,39.9958,-43.0277,-6.6383,37.5,-0.0547903,8.72379,-5.05949,0.104746,-0.0187154,-0.0113213,-15.8385,-45.3738,7.62541,35.0625,9.63916,-1.69856,0.517697,-0.0130145,-0.0197941,0.0049356,-51.5938,25.4273,37.1553,2
lying,60.0,30.8125,0.334565,4.52824,8.76646,-0.0127611,-0.00337265,-0.0351328,-5.50999,16.42,-33.6483,33.5625,0.773365,2.11683,9.4199,0.015409,0.00195077,-0.0263571,35.1338,4.20037,-32.36,30.625,-0.954949,-8.65015,-4.91176,0.0258128,-0.0591707,0.0227865,-12.4317,29.5431,-6.61232,7
Nordic walking,124.0,30.6875,-4.22313,-13.8606,2.02494,0.433048,-0.173797,-1.57064,36.7391,32.0479,-14.2751,33.75,-2.34433,13.6398,-3.06474,0.20276,-0.821019,0.120768,6.9472,-37.6327,21.263,31.8125,10.3881,-0.7694,-2.25884,1.36806,0.0228368,1.86803,-41.8175,22.9869,23.5021,8
transient activities,92.0,31.125,0.386669,8.48738,1.82616,-0.17619,-0.229808,1.0651,15.0389,-28.0955,-11.1105,36.1875,0.632482,9.77297,0.0607109,-0.119891,-0.117933,0.0386014,2.72348,-26.2441,9.1836,34.8125,9.72772,0.523873,-2.0421,-0.0672795,0.0146628,0.00590366,-29.7715,-6.11504,7.12576,6
standing,103.0,33.3125,-9.26771,1.81599,2.55077,-0.0165279,-0.0347298,0.0423519,36.4991,-1.81129,-4.75178,35.25,0.722038,9.62522,0.527465,0.0949892,-0.0498201,-0.0143187,-11.0156,-31.2769,3.75842,33.9375,9.47997,1.77625,-1.78228,0.00214748,0.00156963,0.0020249,-1.6302,-17.0204,15.7473,4
transient activities,140.0,30.1875,2.79728,8.59987,3.78626,-0.0358163,0.0466485,0.0338643,-10.7022,-43.5151,-2.35961,33.5625,-0.0904809,9.65386,-1.19107,0.000488573,0.00701034,0.00101699,-11.3766,-37.6302,12.1164,33.0,9.60809,-1.94498,-1.83506,0.0562436,-0.00813115,-0.0373106,-49.0939,-15.4709,11.0764,1
cycling,137.0,28.875,-1.97462,-9.86721,5.04716,-2.4564,-0.169359,1.16679,5.5167,-18.5526,-47.1067,34.75,-0.811004,2.22003,-9.42752,-0.394097,0.0325902,1.24005,-7.93493,-30.3914,34.6548,34.125,2.49112,2.42616,-1.62645,0.441598,0.0168586,0.935219,-40.7783,-8.09287,23.4,6
running,164.0,28.25,-18.0523,-5.19547,-4.25396,3.3693,-2.21419,-6.93345,23.5331,-65.4084,-15.1009,33.3125,-4.31594,3.43292,-4.3838,0.745564,-1.53607,-0.137921,4.99188,-54.7312,38.549,33.875,26.5788,-7.20874,-11.8932,-5.27918,0.344912,-3.47707,-9.41132,-47.8259,3.13264,6
transient activities,168.0,33.6875,-8.1233,-0.453857,0.0738937,-0.208888,0.105266,-0.183759,4.40776,18.4963,-34.2059,37.875,0.973866,13.6186,0.944977,0.040806,-0.185649,0.17715,11.9968,-24.7545,-15.7181,33.6875,16.5478,0.254787,-6.87136,1.16266,1.19516,2.6229,-52.9744,5.73207,8.44872,8
walking,122.0,31.1875,-6.99494,7.3854,-0.589936,1.49041,0.322993,-0.43864,64.4078,15.2991,-15.2003,36.125,0.509583,8.09198,-9.11292,-0.140428,0.187552,0.500676,-18.0396,-53.1426,22.0457,34.3125,8.17898,7.5821,-14.3733,0.94803,-1.00461,-2.80139,-35.8427,32.2967,43.0411,2
ironing,82.0,34.0625,-7.75391,3.37718,4.49255,0.109342,0.152318,-0.467201,12.4452,-17.432,-45.2903,36.5,-0.611504,9.65838,-0.774593,0.156956,0.451321,0.0175031,3.17725,-35.5265,-9.65512,35.0625,9.69347,-0.769713,-1.68712,0.077755,0.0179725,0.0386137,-31.9844,14.9596,43.5444,6
ascending stairs,158.0,32.25,-2.86817,5.66104,1.13265,0.352165,-0.770904,0.57991,38.9289,-32.1211,4.71716,36.8125,-0.259995,4.78734,-2.611,-0.0440288,-0.91825,0.56947,4.38343,-33.4828,26.4576,34.875,-0.283842,-1.33596,-3.75399,1.21096,-0.709667,-0.0707847,-17.8561,-29.0119,25.7775,2
walking,99.0,31.4375,-9.12719,3.09004,0.893623,0.129527,-0.111317,-0.00751315,36.673,1.39836,-15.9263,36.3125,0.900527,9.81005,0.104167,0.0204967,-0.00937086,-0.032522,9.16196,-26.4818,9.37075,34.875,9.73175,0.0283539,-1.80744,0.0261134,0.0040806,0.0123521,-27.8514,4.98623,5.84315,6
Nordic walking,122.0,30.8125,-5.66683,-15.7158,5.43495,-0.753779,-0.240898,0.133024,24.8306,32.2991,-32.1,33.8125,0.15579,9.96693,0.670979,0.134603,-0.320189,-0.261174,-3.91519,-40.1625,-12.4982,31.75,20.9823,-27.1254,-4.95803,-1.68389,-2.10311,-5.33702,-27.8184,-34.257,14.5405,8
standing,84.0,32.3125,1.08152,4.97466,8.42976,0.000247949,0.00151583,0.0119884,-9.33358,-15.2062,-35.1686,35.375,-0.24358,9.70933,1.36156,0.00733183,0.0404277,0.00996501,2.77748,-26.1597,-10.8206,33.1875,9.57182,1.64604,0.148944,0.038865,0.0021347,0.0241835,-9.13247,-5.5611,22.8618,3
descending stairs,134.0,32.4375,-4.78823,4.64783,9.15117,-0.380476,0.533902,0.481274,70.9035,-68.3081,-13.342,35.625,-0.173777,9.71025,-4.01939,-0.269071,0.210369,0.979862,-30.3583,-47.338,12.5983,33.5,11.4277,4.82695,-4.907,-0.242038,-0.184443,-1.32061,46.2292,-12.643,82.9972,4
ironing,87.0,35.3125,0.352303,9.93623,-1.64311,-0.936683,0.140708,-0.0417128,-7.86761,-137.782,38.6819,37.375,2.28782,10.0551,-1.96243,0.608302,0.911512,0.324152,-15.6551,-38.5685,-12.589,34.4375,9.66586,-0.571518,-2.69196,0.0595826,0.0877991,0.0478858,-41.6235,27.9151,38.9568,5
lying,67.0,33.5,4.85451,-0.330045,8.31173,-0.0160991,-0.0237498,0.0159729,14.6965,23.7758,-39.7705,35.625,0.570794,-1.12154,9.31059,-0.00443509,0.00828608,-0.0186649,36.9283,16.1227,-27.3391,34.625,-0.133242,-9.61623,-3.46952,0.0225957,0.028424,-0.00160814,-17.1904,26.1806,-4.92317,6
cycling,123.0,34.3125,-3.4114,-0.803617,7.49674,-0.20627,-0.184852,0.446977,13.7841,-1.99606,-52.2106,37.8125,-0.0948049,6.27747,-4.89738,-0.101161,-0.235282,0.0101501,-3.06485,-40.0927,13.8751,34.25,17.1927,5.69196,-3.65697,-0.0801601,-0.930858,-2.41426,-44.2155,-4.58625,19.2707,5
transient activities,138.0,28.9375,6.40962,4.67569,0.928564,2.21641,-2.97128,-3.54365,-15.5858,-23.7878,0.339246,32.4375,-0.554556,8.83726,-5.2238,0.421807,-0.386182,0.0581337,6.0551,-29.7055,10.5529,30.5,9.64134,-2.75324,-0.517654,2.12591,-0.271572,-0.818922,-24.3329,-4.38252,15.9433,2
descending stairs,82.0,33.875,-9.1583,3.28137,1.04646,0.0708783,-0.0713338,0.0239287,39.9927,-7.70087,3.15079,37.6875,2.07606,9.6921,-0.0677572,0.0108143,0.0535644,-0.0251323,-4.07911,-25.7414,15.1966,32.75,9.144,-0.367992,-3.97203,-0.00849032,-0.0118021,0.00738567,-24.7703,-7.5853,29.6964,7
descending stairs,139.0,34.5625,-0.558465,1.79117,3.18165,-0.172978,0.240096,0.130233,46.6646,-31.2844,-28.2154,37.9375,-0.385638,0.81378,-0.0447757,-0.346026,0.730744,-0.228105,13.5328,-50.6056,-14.5736,33.6875,3.74797,16.3296,-3.47497,0.223057,-0.331926,-1.17977,-50.0478,19.4637,-0.634172,5
rope jumping,181.0,33.8125,-0.123653,4.7346,-6.67454,2.77968,-0.376269,2.36992,10.9678,-47.7346,-12.4267,36.4375,0.835868,6.97309,-1.82383,1.81517,-0.184376,-0.723725,25.6507,-40.8704,-8.90439,34.125,-0.270665,-5.17451,1.36379,0.735911,-0.522936,-2.27595,-46.9985,-4.24986,-1.02143,5
sitting,87.0,33.8125,-0.287755,9.18556,2.92984,-0.0934865,-0.0194511,-0.0208298,-2.1609,-27.2819,-8.53181,37.3125,1.66214,9.10389,-3.71311,0.034572,-0.00642655,-0.0517424,-4.08807,-21.2808,6.12014,34.6875,9.63579,-1.48606,-2.26211,-0.00613979,0.00480108,0.045359,-10.7966,-6.82469,22.7382,2
transient activities,98.0,34.6875,-9.07745,3.32975,2.27911,-0.167151,0.119288,0.0227956,50.364,13.7025,-8.8109,36.25,1.54932,9.69532,0.155015,-0.048164,0.0804467,0.0116064,3.32517,-39.5654,24.0689,34.0,9.71553,0.299274,-2.42673,0.0156102,0.0215586,0.0156393,-38.7416,-49.4233,13.1014,5
ascending stairs,134.0,32.5625,2.17328,5.77881,5.98021,1.35651,2.24095,-1.69036,-8.78907,-37.8902,-43.5484,35.3125,0.341557,8.8652,-0.677307,-0.303898,1.82459,-0.0915231,-11.4968,-47.7725,9.20689,33.375,10.0477,2.56939,-1.70421,-0.0771376,0.0814427,0.55477,-36.0819,2.50675,29.9285,4
ironing,93.0,34.75,-7.86782,-9.42293,7.11268,0.855657,0.444752,-0.498985,13.1222,16.9046,-48.387,38.0,-1.54031,9.38588,-2.53298,0.120113,-0.583357,-0.124534,-13.3797,-39.5753,6.46817,34.6875,9.27104,0.349487,-3.58928,-0.102336,-0.0606083,0.205979,-43.5278,-8.56036,-6.96117,8
running,142.0,33.8125,-3.72831,14.2866,1.78344,1.11625,-1.61373,-1.06841,17.5895,-43.122,-9.31853,36.5,1.45417,14.9395,1.60764,-0.716919,-1.83693,0.250639,-3.28569,-41.2194,-10.6548,34.0625,11.4935,2.23264,-3.42382,1.14442,2.03275,7.79276,-43.8522,-1.89067,22.6729,5
standing,91.0,34.0,-7.36902,5.25986,3.22188,-0.0384433,-0.0386202,-0.053318,18.5768,-17.9269,-34.1288,37.4375,0.680805,9.29733,-3.42175,-0.0176644,-0.000546692,0.00693493,0.541868,-29.0888,-0.0716234,34.75,9.54032,-1.64236,-1.64468,-0.037524,-0.0415006,0.0196346,-22.3983,21.8472,38.1161,2
ironing,84.0,32.75,-3.22965,6.588,6.85873,0.218628,0.0011219,-0.0503488,-4.0827,-21.6628,-39.1173,36.0625,0.0910417,9.68884,-1.49766,-0.0139847,-0.00374967,-0.0305874,-3.28312,-31.7951,-7.85573,33.6875,9.72492,-1.07241,-1.83927,-0.0331646,0.0672598,0.0222415,-29.9943,20.1287,38.1599,3
transient activities,147.0,32.1875,1.70441,5.41926,7.7833,-0.0468932,-0.0184923,0.0140692,-13.7553,-10.3243,-44.3617,35.625,1.43451,9.6667,1.43082,0.0128257,0.0111683,-0.0349836,5.10478,-32.1043,-20.3775,33.4375,9.36915,1.21683,-2.93764,-0.0322707,-0.00789961,-0.00997056,-30.7988,19.1143,31.7717,4
descending stairs,107.0,33.5625,1.02273,1.74932,4.12917,0.723395,3.20805,2.05267,-2.97475,-9.2953,-57.2505,36.75,-2.90165,5.98571,0.705971,0.0111279,-0.138515,-0.0847112,-12.007,-50.077,11.0495,35.125,8.13421,-6.16318,-0.241821,-1.85984,-0.659621,-1.60661,-34.0938,3.62661,50.358,6
transient activities,148.9090909090909,33.5625,-8.85145,5.24097,4.04646,-0.258439,0.454472,-0.315185,51.143,17.6238,-26.1333,37.0,0.805626,10.8133,-1.9143,0.161924,0.254926,0.0713105,13.0971,-42.9657,29.6414,34.875,15.5253,20.9309,0.591982,-2.4333,-1.35945,3.95463,-61.1404,9.54566,20.3538,1
ironing,88.0,34.25,-1.64084,0.602097,9.25045,0.329599,-0.382265,-0.673769,-4.8371,-26.9483,-64.7417,37.625,0.169402,9.3329,-3.97323,0.153169,0.298447,-0.0707671,-5.72239,-34.6826,-0.909694,35.0625,9.77385,-1.19009,-1.41356,-0.0563432,-0.075167,0.0720478,-37.8374,12.1295,38.2625,2
transient activities,122.0,32.0625,-7.02774,11.8937,-1.37538,1.84319,-0.196767,-0.70734,56.6731,-3.21658,-12.881,36.6875,-0.854332,8.04038,-6.27211,-0.229638,-0.628923,0.314541,-1.31546,-25.5901,39.4976,34.0,10.5849,4.68098,-0.322576,0.300823,-0.191343,-3.20352,-37.1005,-38.8161,-16.1307,1
sitting,75.0,31.875,-1.7163644444444446,6.748194444444445,6.773947777777778,-0.0052037177777777,0.0030001188888888,-0.0013115977777777,6.704133333333334,-20.847466666666666,-23.51711111111112,34.8125,-0.341,9.612,-1.93117,0.01601,-0.064327,0.00272469,7.05513,-25.8824,3.85352,31.5625,9.18709,-1.39659,-3.57931,-0.0323763,0.0112927,0.0335348,-5.70696,-7.56045,11.3252,7
lying,76.0,32.5625,-0.140943,-3.35123,9.74811,-0.12109,-0.0492889,0.00625681,39.562,13.018,-38.5745,34.4375,-0.755496,2.23351,9.23694,0.0839143,-0.0103622,-0.0196801,40.7114,5.02149,-27.8138,33.125,1.57578,-9.74228,1.37248,0.10237,-0.0316238,-0.0287444,-19.6589,17.6518,-13.7156,4
Nordic walking,129.0,34.625,-6.78477,12.9198,3.24328,0.59211,-0.902085,1.72191,19.0655,-40.6165,-41.3573,38.375,1.36453,10.7071,-6.20186,0.504871,0.306126,0.120679,27.9338,-43.4015,-12.2582,34.25,4.24208,6.62637,-10.5488,-0.61415,-1.18824,-2.43305,-48.8989,18.1115,-3.18154,5
transient activities,112.0,32.625,-7.72465,5.5237,2.71533,0.0115372,0.042384,0.000921187,29.689,-53.0881,-28.3112,35.4375,1.13491,9.51833,1.61948,0.0262326,0.0239242,0.0161093,-11.7979,-46.1987,-5.18658,33.4375,9.38591,0.424071,-3.51139,-0.0178917,0.015894,-0.0160115,-62.1751,13.7682,45.7089,4
transient activities,116.0,27.875,-7.00887,4.8921,0.611375,-1.28714,-0.078449,-0.3617,41.6204,-10.7893,-16.1464,31.5,-3.73082,5.89154,-8.02096,0.68857,-0.207203,-0.551801,29.54,-22.457,24.1574,29.875,10.0627,0.158652,0.587694,0.180122,-0.117991,0.122684,-40.347,11.0678,16.6104,2
walking,124.0,32.875,-8.3511,-4.53281,1.97012,-1.06123,0.624778,1.68192,52.6789,-23.0256,-2.94988,37.375,1.23622,8.04742,1.31633,0.0753351,-0.458244,-0.183848,2.99505,-52.6924,9.47667,33.0625,33.6687,-15.1559,-1.89222,-2.73552,-2.84595,-6.29283,-56.4343,-0.892056,17.5215,8
Nordic walking,124.0,29.1875,-2.73139,2.47499,1.37638,-0.380579,-0.295623,2.70309,3.5303,-43.3728,-21.7556,34.5625,1.44125,5.43606,-0.530075,-0.367737,0.172596,-0.168727,-2.50091,-40.344,-12.2054,32.9375,10.4823,-2.32393,-2.59553,-0.4485,-0.073161,-1.18935,-39.517,18.634,27.0611,4
transient activities,104.0,32.3125,0.618109,-7.99743,4.27146,0.6421,0.156628,1.35983,18.5839,26.189,-18.1397,37.0,1.81913,9.38537,-1.00072,0.118039,0.426617,0.364743,0.552176,-28.8819,18.3488,32.4375,12.5337,-1.57439,-2.96504,1.73083,0.596119,1.33555,-27.9088,30.473,3.2604,8
sitting,85.0,32.9375,-2.32537,6.39096,6.83445,-0.0317777,0.01033,-0.0115421,9.08191,-21.0847,-23.4768,35.125,0.956985,9.53316,-1.82996,0.0576486,0.0432711,-0.036411,1.87192,-24.144,4.2306,33.875,9.62227,1.61467,-0.699314,0.0233398,-0.0327513,0.0513863,-6.64234,-5.67788,22.6663,4
cycling,133.0,31.1875,-6.67512,0.0328742,9.0615,-0.685571,-0.108137,1.01224,49.5428,9.26973,-22.2993,35.8125,0.60032,8.83628,-4.81567,0.0248343,0.853966,-0.0670245,23.2737,-24.3201,33.8504,32.0,8.64747,-9.69983,0.0555178,0.787814,-0.308147,-0.603007,-19.2082,39.6244,22.9951,8
transient activities,107.0,32.375,-0.183197,-7.60717,-3.67026,-0.239209,0.349287,0.00922492,7.07208,20.7454,15.1183,37.0,-0.48597,9.99923,-0.424939,0.108288,0.152091,-0.0570954,20.6045,-26.2519,2.39885,32.5625,9.22134,-0.103008,-3.93429,0.0100834,-0.0433661,0.00556307,-21.8674,12.2266,30.1091,8
ironing,88.0,34.3125,-0.0636978,2.6422,9.65207,0.363221,-1.04977,-2.71034,-27.065,-18.0039,-50.7347,37.625,0.964736,9.1411,-4.11308,0.128984,0.349747,-0.127279,-5.84956,-33.7575,-3.85224,35.0625,9.80608,-1.34092,-1.56665,0.17513,-0.0443579,-0.0617574,-37.8584,13.3502,37.7806,2
walking,122.0,32.8125,-14.2102,-2.58463,2.53007,0.863889,0.216138,-0.755265,47.2271,-0.66131,-26.4338,37.375,-1.504,11.1452,-4.04815,-0.381169,0.130374,-0.118036,-4.40495,-39.3683,-14.7622,33.0,8.03751,-3.79869,-1.45376,-0.732528,0.202584,3.47433,-38.5088,-22.2585,16.9002,8
