activityID,heart_rate,hand temperature (°C),hand acceleration X ±16g,hand acceleration Y ±16g,hand acceleration Z ±16g,hand gyroscope X,hand gyroscope Y,hand gyroscope Z,hand magnetometer X,hand magnetometer Y,hand magnetometer Z,chest temperature (°C),chest acceleration X ±16g,chest acceleration Y ±16g,chest acceleration Z ±16g,chest gyroscope X,chest gyroscope Y,chest gyroscope Z,chest magnetometer X,chest magnetometer Y,chest magnetometer Z,ankle temperature (°C),ankle acceleration X ±16g,ankle acceleration Y ±16g,ankle acceleration Z ±16g,ankle gyroscope X,ankle gyroscope Y,ankle gyroscope Z,ankle magnetometer X,ankle magnetometer Y,ankle magnetometer Z,PeopleId
lying,80.0,31.5,-0.53341,6.86379,6.12844,-0.398992,-0.110491,0.0566366,7.33883,-41.2295,-16.0819,34.0625,0.401981,9.66913,1.29594,-0.0879735,0.041198,0.00364183,4.54694,-36.4222,17.3853,32.0625,9.86161,0.4408,-1.26842,-0.032089,-0.0275548,-0.0227582,-44.0664,-54.1173,25.229,3
transient activities,89.0,30.9375,-9.41607,4.7438,3.11599,-2.28138,1.57769,-1.52114,43.0517,-25.8824,-8.22443,32.875,-0.918948,11.7284,-1.05794,-0.299331,0.295143,-0.109698,-17.171,-37.5544,12.764,31.0,7.27286,-11.5359,-1.87666,1.30408,-0.0540458,-1.06718,-40.3723,-47.7697,36.0352,3
walking,105.0,32.8125,-7.49308,-0.17723,1.85282,-0.139587,0.679243,-1.98676,43.484,-21.9257,-19.7356,37.625,0.467575,5.93228,-0.00723472,0.0536542,-0.00416594,0.200659,-3.91742,-38.4844,-13.9178,32.0,-0.80024,-4.11077,-2.97027,-1.04935,-1.33658,2.97066,-37.1069,-18.7039,23.5671,7
transient activities,102.0,32.9375,-9.11765,3.55667,2.16228,-1.13681,0.312693,-0.0153778,44.519,-39.2191,-10.1209,37.4375,-0.025527,8.83456,-5.36909,-0.0216892,0.130567,-0.0598187,-12.3531,-47.2582,5.46935,35.0625,9.63407,-1.61033,-0.987896,0.328203,0.00982286,-0.457079,-47.2054,27.8344,43.7054,2
sitting,79.0,33.9375,-3.08998,6.09161,6.63157,-0.144754,-0.0424571,0.0563041,6.53479,-25.0175,-20.7585,37.375,1.1452,9.52066,1.96815,-0.108434,0.0265408,-0.0370312,-2.93211,-19.8787,-4.76986,34.6875,9.38431,-3.27471,-1.55897,0.0170127,-0.0128046,-0.000433995,-15.8,-2.54613,21.2156,2
cycling,130.0,28.0625,-8.61345,-1.44302,3.57224,0.0377606,-0.0761515,-0.127903,45.9004,1.53367,-5.05357,33.4375,1.11137,8.36918,-6.81838,-0.0941427,0.0490744,0.120554,-8.24168,-15.2959,39.2201,32.75,1.96982,8.00788,-1.28054,-0.127689,0.0798048,-0.0999891,-5.92145,-33.8149,10.9294,4
cycling,134.0,29.4375,-10.185,-1.56735,9.47618,0.0964917,-0.0358052,0.0822308,16.6093,-0.284622,-51.0457,35.1875,-0.916573,6.26638,-6.92573,0.387413,0.398104,-0.588433,-0.675391,-37.8691,23.0444,34.25,15.3502,3.19637,-3.50602,-0.439468,-0.37649,-1.74831,-45.4378,12.2186,21.6581,6
ironing,87.0,34.375,-4.69219,1.80218,9.23919,-1.38779,0.316848,0.0525042,-10.5315,-9.51801,-40.5328,37.75,-1.20728,8.76294,-5.39027,-0.0246674,0.932705,-0.38421,-0.9206,-33.6728,5.53858,35.125,9.58345,-2.03522,-0.0596284,0.0766374,-0.0429651,0.035676,-40.402,8.42374,33.2928,2
transient activities,111.0,33.625,-9.47546,2.2391,3.00808,0.313109,0.120229,-0.487301,26.0409,-29.4313,-16.8989,35.8125,0.994184,9.76737,-0.590974,-0.0552535,-0.0453767,0.0617348,-11.2702,-28.9272,-14.1642,34.375,9.52316,0.986464,-2.74168,0.0138521,-0.00679501,0.017732,-19.4923,-4.04832,52.2621,4
walking,112.0,34.6875,-11.42,0.876471,1.67498,-1.89637,-0.295731,2.78857,39.4461,-27.2937,-18.5138,38.25,-1.19768,7.37016,0.228969,-0.0927173,-0.0966443,-0.234747,-5.07493,-37.7961,-14.6348,34.1875,9.63357,0.844884,-4.0903,0.291733,-0.136112,-0.542044,-40.0222,21.6044,21.6663,5
transient activities,124.0,34.625,-10.234,3.61741,3.72333,-0.658796,0.422661,-0.272976,45.0524,-0.406252,-4.51516,38.3125,0.091691,10.3663,-1.53857,-0.119743,0.816753,0.27982,-5.19808,-26.4803,21.2562,34.3125,11.2967,-4.46195,-6.43287,0.650729,-0.746544,-1.27942,-30.6561,9.04624,25.4014,5
lying,73.0,34.875,0.865595,7.34553,6.0708,-0.0395839,-0.00192553,-0.0262448,-9.88061,8.09147,-32.4078,36.5625,-0.214434,1.59381,9.55859,-0.019613,0.0208001,0.00549742,38.7853,5.60934,-28.6765,34.125,-0.452874,-9.26619,-4.24676,0.0159591,0.00753182,-0.00182153,-13.6716,28.0613,-6.18947,5
transient activities,95.0,33.875,3.56657,3.28674,8.54965,0.142073,-3.2912,-1.46785,-18.5684,-17.4143,-81.4476,36.8125,4.56308,20.7964,0.560741,0.757358,-1.6972,-0.568566,7.07276,-56.6774,-23.1853,35.1875,23.833,0.85998,1.80507,-0.714998,-1.14909,-1.81457,-50.6004,10.295,24.1951,6
standing,83.0,34.5,-9.70538,-0.288838,0.165101,-0.0698444,-0.00470466,-0.0467841,48.7971,-6.19556,-11.9679,37.5625,-0.468167,9.81511,0.195518,-0.0391523,0.0302277,-0.0134937,-3.35001,-37.2357,5.11463,34.25,8.12922,-3.92413,-4.77075,0.0405601,-0.0189476,-0.0374533,-31.1021,13.5833,28.373,8
transient activities,131.0,32.5625,-7.71371,5.9516,-0.326454,-1.02184,0.457061,-0.00921577,34.3793,-53.2015,-9.42264,35.375,0.47234,9.17836,1.14393,-0.130943,0.141077,-0.0978229,-8.47777,-46.7103,-3.04551,33.4375,9.39091,0.536692,-3.35768,0.0178154,0.0116101,0.00531125,-63.7047,12.8095,44.0026,4
Nordic walking,146.0,32.375,-0.22337,2.3456,1.83774,-1.19336,-0.881676,3.0738,-9.62286,-33.8807,-62.5628,36.9375,0.259733,8.19557,0.485016,0.256988,0.249272,-0.16621,35.7881,-59.0613,-3.74495,34.1875,9.14213,0.534497,-2.89714,-0.076779,0.463825,-0.891082,-68.5051,16.2224,-6.25091,1
ironing,107.0,34.3125,0.433209,5.28112,8.18809,-0.00489943,-0.00803588,0.0625843,-18.2302,-24.7496,-48.3626,37.625,0.364387,3.34387,-9.71965,-0.0112435,0.0852925,-0.0858797,-28.9677,-8.33203,61.6557,35.0,9.36677,-2.62314,-2.2964,0.0681654,-0.0649748,0.00315007,-35.7645,18.5098,42.5221,2
ironing,92.0,34.6875,2.57185,-9.92004,-1.08103,0.54891,-0.0476218,-0.177962,-9.93664,52.7649,-38.9778,37.6875,0.21342,9.84958,0.0528698,0.00192779,0.0887147,0.0823395,-15.4142,-49.1558,-9.56609,34.5,9.67266,-0.535477,-2.46057,0.00823115,0.0307348,0.0133428,-54.133,2.77511,-9.70644,8
Nordic walking,138.0,29.5,-11.3183,9.27177,2.87978,-0.761461,-0.216168,2.28455,47.079,-8.47103,-25.7299,34.8125,2.0006,10.8328,-4.02237,-0.104818,1.12845,-0.175085,16.2224,-32.3032,23.8354,33.0,11.0152,0.456746,-4.11231,-0.945088,-0.277699,-0.947585,-44.4082,-12.199,10.3435,4
running,154.0,33.8125,-4.75285,22.4665,7.59058,2.54576,-1.26988,-1.90766,39.5448,-19.4773,-13.3121,36.5,-0.726423,21.3907,-3.17679,-0.260042,-1.57598,0.246845,7.03136,-25.9077,28.6703,34.0625,2.47293,2.32808,-3.55551,1.95628,1.31734,5.47932,-0.558503,-37.2855,16.2001,5
transient activities,91.0,34.25,-8.51343,5.27449,-0.374636,0.204468,-0.0802014,0.0412635,21.5036,-26.6237,2.77713,37.5625,1.52407,9.21177,-4.5291,0.0351108,0.10136,0.00138082,-11.0336,-23.9611,6.86919,34.9375,9.65768,-1.30232,-1.52982,0.0147341,-0.000939665,-0.0357769,-18.6219,-15.7899,37.56,2
transient activities,85.0,32.9375,-5.14752,5.2797,7.37324,0.637211,-0.0377017,-0.117997,33.7294,-35.0866,-65.3048,34.9375,0.903185,9.80189,-1.09611,-0.0296426,0.0906806,-0.0726828,-7.91389,-40.2734,-11.9614,34.0625,9.21694,-0.101723,-4.0887,0.0325968,-0.0551608,-0.031512,-33.387,26.7441,43.1003,6
standing,76.0,34.4375,-9.45036,-1.14479,2.25013,0.691767,-0.0560842,-0.091974,45.5093,-8.25699,-16.6731,37.5625,0.565004,9.62466,0.369738,-0.0670684,0.00803522,0.0556268,-5.45059,-35.4825,5.93608,34.1875,6.73922,-7.05336,-1.7556,0.0318857,0.0271254,-0.0149874,-19.9097,28.0582,18.1837,8
standing,91.0,34.0625,-7.50982,4.51595,4.76178,0.111861,-0.497323,-0.0436016,16.1619,-27.0517,-24.4783,37.375,0.444757,9.10822,-3.65774,-0.259617,-0.337311,0.35769,-9.86139,-25.2407,8.11102,34.75,9.55227,-2.09148,-2.45215,-0.13437,0.118864,0.0965065,-16.0053,-18.0995,38.3804,2
transient activities,125.0,32.0625,-5.26593,10.1539,0.773682,0.976478,0.492165,-0.914511,49.8918,-24.9185,4.43778,36.6875,3.22154,7.98947,-6.27554,0.560916,-0.473176,-0.341308,11.1409,-22.4713,43.981,34.0,10.3,1.13625,-3.08195,-0.11942,0.0149149,-0.630724,-43.8474,-33.8031,-10.0806,1
ascending stairs,125.0,35.0625,-10.3007,4.58538,1.60226,-4.46156,0.569912,1.68587,50.9383,-21.7032,-19.8833,37.8125,3.00195,11.4429,-2.41865,0.369481,0.674076,-0.264682,-9.24226,-37.6944,34.8282,34.125,3.48538,6.93298,-5.65754,0.000906329,-0.623843,-1.67779,-26.4289,-30.7051,20.0728,5
transient activities,126.0,32.5625,-7.58572,6.1914,1.13717,-0.0100364,-0.0257835,-0.0308071,26.8068,-56.4033,-20.0177,35.4375,0.819054,9.70496,1.22594,-0.0663784,0.00708966,-0.0082381,-11.2924,-48.0252,-2.91662,33.4375,9.27265,0.234939,-3.51138,-0.026655,0.00810782,-0.0137444,-61.5539,14.6389,45.8519,4
transient activities,103.0,32.6875,-10.9304,9.66963,5.27046,0.641572,-0.479956,-0.805708,43.253,-12.7216,-7.06147,36.6875,0.913109,9.8129,0.530316,0.0608348,-0.215174,-0.0283809,5.96908,-29.2105,18.1063,35.0,9.62128,-0.0475144,-1.73093,-0.0897992,-0.00323161,0.0757853,-31.8112,-11.3816,20.3151,6
Nordic walking,106.0,30.8125,-3.60934,6.09691,2.54411,-0.542149,0.669888,-1.22775,17.4331,-42.3673,-6.69815,36.0625,0.877381,9.85119,0.606987,0.371152,0.496774,0.0212054,-11.1142,-38.2259,-7.20115,34.8125,21.1402,15.8636,-6.22652,-1.54305,0.193775,6.34027,-30.2955,33.6151,24.2395,6
ascending stairs,116.0,32.5625,-4.51408,2.80957,3.27291,-4.40101,0.984206,-0.439926,34.6585,-39.3152,-5.96416,35.25,-0.695783,9.93771,1.50751,0.119006,0.457138,-0.26607,-5.08562,-43.8883,15.0106,33.375,18.3997,6.23538,-6.04052,2.96838,0.978753,4.55164,-54.9746,-8.1666,20.2299,4
ironing,84.0,34.0625,-6.75641,7.15081,3.07073,0.159157,0.135272,0.179652,21.6892,-37.5043,-3.45546,36.5,-1.3595,9.7305,-1.60152,0.0971367,-0.195006,-0.0458746,-1.0052,-36.9251,-4.60012,35.125,9.68118,-2.70547,-1.75241,0.0568421,-0.0459621,-0.287377,-30.7732,6.40456,44.4096,6
transient activities,98.0,33.8125,-7.80262,4.99347,2.75444,-0.0395814,0.0253725,-0.00698039,44.0322,-1.96122,1.13932,36.8125,0.936255,9.77176,0.0274972,0.0299745,0.0203224,-0.0391847,13.3409,-29.2307,23.9389,35.1875,9.55624,0.150918,-2.73615,0.0378833,-0.00189355,0.0241431,-20.135,-11.1121,3.61965,6
standing,81.27272727272727,32.5625,-8.85553,3.40254,2.12823,0.065876,0.0710787,0.00589958,31.7602,-13.1727,-6.33792,35.75,0.944836,9.70719,1.61542,0.083019,0.0440594,0.140243,-4.13406,-26.489,-10.6808,33.5,10.0174,0.133854,-0.994789,0.0443071,0.186163,-0.137926,-6.58621,-3.54984,22.4911,3
standing,110.0,32.75,-8.19448,3.63926,3.71532,0.0499925,-0.000938167,-0.0175226,27.933,-36.5019,-53.5314,34.375,0.286588,9.8399,-1.33973,-0.0130934,-0.0197088,0.0202126,3.23899,-61.1983,-29.9831,33.125,9.87469,-0.855914,-0.565625,0.00620505,0.0202967,0.017966,-82.0149,44.3921,-6.33506,1
transient activities,122.0,33.5,3.14327,8.29575,4.02339,-0.0839263,-0.202293,-0.105989,4.84293,-56.0805,-9.26961,37.1875,-0.107637,9.64997,-1.77218,0.0284205,0.0203727,-0.041447,-1.11201,-39.259,30.534,34.875,9.73058,-0.628439,-0.414156,0.0053748,0.0240102,-0.0150864,-55.2452,-29.6907,1.44408,1
running,167.0,33.8125,-12.7635,16.3077,7.68381,3.84765,-0.607841,-1.78238,24.0827,-33.3061,-29.076,36.375,-1.24187,20.7742,0.0684369,-0.912735,-1.68397,0.663932,0.918357,-39.8284,-9.2234,34.0625,4.76842,0.484695,-2.74874,1.15308,1.32433,7.19533,-34.7913,-18.0381,26.5529,5
transient activities,118.0,30.625,-0.675797,-9.4668,4.29552,0.148568,1.69473,-0.0308505,16.9285,27.2722,-15.1246,34.0625,0.309962,10.0333,-0.565514,0.0439553,-1.39568,-0.242571,5.07716,-27.3697,15.8336,31.8125,10.0766,1.34411,-0.461439,-0.172946,-0.624725,0.0405918,-25.4285,12.3397,8.25429,8
transient activities,127.63636363636364,33.9375,-8.9129,2.19577,2.90119,0.73191,-0.00617472,-0.246931,36.6485,-13.2357,-4.02664,37.6875,-0.086276,9.66356,0.24165,0.0601925,-0.123984,0.0676813,-4.77582,-25.9691,10.8219,32.75,9.57527,-0.425036,-1.96059,-0.0877849,-0.018889,0.06304,-28.4641,-3.4188,26.7001,7
walking,111.0,31.5,-9.77576,4.10745,3.76703,1.07795,1.08421,-0.410262,47.2402,-4.13395,-22.3445,35.6875,-2.28104,11.3412,-3.28845,-0.23898,-0.161196,-0.568445,6.73878,-39.171,19.7193,33.5625,20.821,-4.01648,-3.17361,-3.20843,0.0360675,-3.11294,-19.344,-36.1264,4.21878,4
transient activities,167.0,33.75,-13.3605,-0.343411,-0.659212,-0.974714,0.747626,1.2642,29.5121,17.1676,-17.451,37.875,2.54983,13.2807,-3.71061,-0.359291,1.2854,0.514775,10.2356,-31.4078,-4.27123,33.6875,22.2558,3.27187,-4.09169,3.22722,1.20486,2.61503,-48.3231,-5.90623,26.0658,8
sitting,80.0,32.125,-1.58544,2.72707,9.32109,-0.0574619,0.027025,-0.0263793,5.19482,-8.82533,-29.9427,35.1875,0.59805,9.30223,2.8108,-0.0222101,0.0110452,0.00173828,3.97078,-18.8563,-7.36046,33.0625,9.63991,0.762249,1.38999,0.00434745,-0.0619518,-0.00329145,-14.0033,-4.55434,18.085,3
transient activities,102.0,32.6875,-8.60521,5.92582,4.4712,0.343587,0.189972,0.0751989,41.9387,-15.8788,-8.22075,36.6875,0.830762,9.66123,0.335713,-0.153044,0.140818,-0.0196356,5.48215,-29.0616,16.269,34.9375,10.0539,0.372756,-2.38512,0.293169,-0.0921498,-0.247013,-32.6025,-10.3131,20.0274,6
transient activities,135.08333333333334,30.375,-7.51247,7.30807,3.02039,1.78787,-0.178571,-0.289676,69.7612,-39.6102,-42.8182,34.0,0.603241,7.05079,-7.13307,0.0992316,-0.139971,-0.0154649,-15.1565,-45.7149,78.9757,33.25,9.67292,-1.7524,-2.22148,0.0152525,-0.00210585,-0.135829,-43.9818,-32.1113,4.29683,1
standing,73.0,32.4375,-9.42977,2.67571,0.967463,0.00575355,-0.00312976,-0.008144,30.6504,-16.642,-9.37434,35.0,1.32158,9.62099,0.189852,-0.0290744,-0.00847226,-0.00560774,1.39339,-30.4331,-7.72239,31.9375,9.71217,-0.346192,-2.42275,0.0103134,-0.035356,-0.00381407,-1.02214,-5.99249,11.0562,7
running,168.0,33.8125,-15.6492,26.6472,7.2978,-1.8222,0.431538,5.58052,4.88319,-44.4355,-18.3398,36.4375,4.91036,20.6571,-3.14973,-0.702581,2.12596,-0.319647,-14.1933,-38.6278,-7.5023,34.0625,14.4255,8.92441,-6.83116,-0.777974,-0.727221,-2.63633,-40.9238,8.28465,30.0466,5
transient activities,77.0,30.4375,-0.697363,8.78347,4.27211,0.00739697,0.429434,0.268219,-2.62239,-28.0099,-26.0094,32.3125,-1.04819,9.70212,-0.0856699,-0.0488287,0.0788256,-0.0238545,2.55181,-30.3337,-5.68139,30.4375,9.84388,0.625419,-0.613723,0.0111124,-0.0413438,0.0433962,-12.7008,-7.33351,7.77109,3
cycling,139.0,28.9375,-7.34276,-0.451058,9.51498,-0.316391,-0.367117,0.248303,51.1073,8.31265,-29.5144,34.8125,0.474446,6.62518,-8.87646,-0.505671,0.549027,-0.393136,8.02786,-10.1012,47.2,34.125,9.71505,4.85189,-1.99191,0.187286,0.382131,-1.16765,-26.1493,-32.0417,8.1614,6
transient activities,148.0,32.25,-10.195,2.72683,1.76406,1.78259,0.642407,-0.925036,25.2731,-9.42093,-31.9792,35.625,-0.68956,12.8568,-1.13489,0.232698,0.335907,-0.260704,9.36364,-26.8637,-2.47004,33.5,19.9771,-3.30416,-1.41157,-1.6534,0.334721,-2.82719,-14.0632,-14.5992,15.2753,4
Nordic walking,132.0,30.4375,-7.15016,7.04591,3.71947,0.66977,0.0821528,-3.06838,40.6341,-8.96184,-26.8781,35.5,0.923175,5.6784,-3.90897,-0.274743,-0.272396,0.592554,19.1912,-23.0668,30.864,34.1875,4.05553,0.136798,-1.44184,1.24568,-1.56925,3.73311,-21.4884,-22.4453,-10.885,2
transient activities,110.0,32.5,-11.9912,6.52272,0.377293,0.203979,-0.201143,-2.01655,33.5345,12.5567,-35.0131,37.125,0.728873,12.3301,-5.9476,0.161889,0.264744,0.349093,14.3217,-23.5864,32.1377,35.0,16.8047,-0.320529,-1.69416,1.06274,0.322368,-2.93753,-42.24,5.39984,8.02472,2
standing,90.0,35.25,-2.49788,8.23275,4.74734,-0.0617241,-0.0249981,-0.359847,78.5908,-126.717,-79.8004,37.1875,1.66307,9.46904,0.157811,0.0295957,0.114618,0.0988386,-4.79162,-41.6694,-20.392,34.4375,9.3517,0.195211,-3.35596,0.0212727,0.0420608,-0.0211772,-48.9849,28.4244,43.4689,5
sitting,82.0,34.9375,-0.164149,6.64124,7.01993,0.0254578,-0.0306065,-0.016294,2.9047,-19.3947,-30.561,36.875,0.533183,9.5597,1.87949,0.0129565,-0.0111022,-0.0293199,5.90568,-23.7657,-6.45981,34.125,9.03376,-2.72551,-3.45686,0.000694007,0.00753625,0.0217705,-36.2221,2.51039,28.7934,5
ironing,85.0,32.75,-5.09295,7.48877,4.13367,-0.337793,0.238346,-0.00817797,3.7189,-31.4577,-31.9056,35.9375,-1.16038,9.50606,-1.28741,0.079763,0.117318,-0.0799567,6.35271,-31.09,-10.1601,33.625,9.72817,-0.236784,-1.88302,-0.016318,0.119616,-0.0363036,-32.5254,22.802,34.6195,3
walking,124.0,32.625,-11.1521,-2.51369,4.65396,-0.724014,0.694413,1.83647,44.0356,23.7182,-11.3522,37.25,1.77416,10.1164,1.28063,0.154113,-0.240787,-0.427201,21.0986,-27.6505,-33.9689,32.875,23.1825,-39.6478,-2.85109,-1.16126,-2.17409,-4.72345,-15.399,-27.7129,42.5176,8
Nordic walking,122.0,34.8125,-1.97098,-1.99006,-0.82944,-0.722426,0.646748,2.6154,23.5926,-39.2306,-20.2465,38.5625,0.304138,3.36262,-1.43452,-0.176383,-0.0706569,-0.439335,11.9841,-38.9796,21.5877,34.375,9.23918,0.994548,-3.51643,-0.671353,-0.0437476,-0.524806,-41.0024,-17.8793,19.0138,5
ironing,108.0,33.5625,-6.67406,4.11358,7.16187,1.12752,-0.773192,-0.112775,12.4402,-13.5886,-50.9565,35.5625,-1.68571,8.73072,-4.81802,-0.158424,-0.49736,-0.45687,-0.939255,-41.837,3.74748,34.25,9.67911,-0.368609,0.355495,-0.312606,-0.0360231,-0.0070334,-49.0715,9.47516,33.9879,4
transient activities,122.0,32.125,-9.40762,6.19484,4.15038,0.209618,-0.442456,-2.0368,44.4744,-18.4036,-54.7979,35.625,-4.56122,10.5684,-1.73969,-0.0513666,-1.2159,-0.502653,21.6837,-44.5951,-6.93679,33.5625,17.0991,2.75322,-6.37955,-4.64643,-1.30712,-1.71927,-55.6292,-34.1555,15.1518,4
transient activities,166.0,30.8125,1.32514,-6.53726,6.93275,0.0182881,0.0284161,0.00557203,17.2614,17.1867,-38.5547,34.0625,-0.784721,9.73816,-0.197177,0.0428459,0.0412365,0.0135695,16.4422,-32.0391,10.299,31.6875,6.28573,-7.46753,-1.83485,0.0527183,0.0118515,-0.00641071,-12.3333,23.9363,14.6693,8
transient activities,171.0,30.875,-5.99101,-5.91001,2.77987,0.539168,0.362397,0.436777,23.7917,36.5728,-33.6986,34.1875,-0.427219,9.58985,0.313154,0.430569,0.458436,0.225885,18.1611,-40.466,-7.97177,31.75,9.50045,1.06915,-3.55281,0.1115,0.221163,-0.844022,-35.9987,-25.2363,53.647,8
walking,113.0,34.75,-10.8979,4.75317,2.86283,0.542253,0.445607,0.839755,59.4474,9.48836,-18.2525,38.3125,2.46449,10.2684,-3.74108,-0.0569784,0.0759132,-0.0746928,-8.88319,-57.944,24.0883,34.375,11.328,10.6206,-2.93732,1.04307,-1.49383,-2.79234,-48.3399,-5.78042,24.7891,5
transient activities,107.0,32.375,-2.66832,-8.11344,5.37724,0.30356,0.121716,-0.0979892,-4.82704,28.0611,-15.3478,37.0,0.162055,9.74256,0.904148,0.0884138,0.0429325,-0.019395,18.2263,-27.1925,-0.85546,32.5,9.22486,-0.4843,-3.73894,-0.00127732,-0.0519353,0.00230185,-25.2302,14.5842,30.52,8
ironing,91.0,34.0625,-6.37629,4.22372,7.01201,-0.209846,0.40608,0.257943,15.0255,-2.06215,-51.9503,36.4375,-0.983704,9.71935,-3.06607,-0.0539243,0.0689764,-0.196937,12.3454,-38.7035,-8.30425,35.0625,9.2545,-0.710421,-3.96877,0.0142151,-0.0432163,-0.0393257,-31.5736,33.972,36.2903,6
Nordic walking,116.0,30.4375,-5.40105,6.41946,3.0935,0.0917256,1.21809,-1.34299,46.5907,-29.6428,7.73238,35.875,-1.28303,8.52613,-1.48006,0.00501812,1.12534,-0.276044,-19.1257,-41.0628,28.2923,34.625,14.6097,3.07872,-7.1403,3.79727,-0.16363,6.01461,-42.1594,-20.2493,25.2531,6
ironing,84.0,32.75,-2.99809,6.32235,7.05553,-0.0164961,0.0771273,0.00501903,-4.0832,-21.7716,-39.1185,36.0625,0.0993469,9.80362,-1.22684,0.0415594,-0.0745229,-0.0491582,-3.27745,-32.0222,-7.48821,33.6875,9.80527,-1.07449,-1.64549,0.0546293,0.072562,-0.0208034,-30.2113,19.6935,38.2808,3
transient activities,124.0,31.9375,-9.16586,2.83478,2.01004,-0.0349034,0.0430811,-0.00467643,31.5815,-15.9201,-20.3687,36.5,1.18855,9.02639,-4.26353,0.0112417,0.00320826,-0.0105856,4.42098,-30.6058,5.01088,34.5625,9.68723,-1.75658,-1.71965,0.0941874,-0.0244231,0.0067498,-26.6585,18.1898,17.1933,2
cycling,117.0,32.6875,-8.37847,-2.12319,8.312,-1.45958,-0.107774,0.0453794,8.8912,-16.2549,-53.1641,37.6875,-0.226198,8.04262,-5.6412,0.247779,-0.139103,0.445658,-1.8548,-43.6196,14.0446,32.125,8.94957,3.09572,-4.88308,0.415127,-0.0436137,-1.01901,-41.8507,-7.7597,30.913,7
vacuum cleaning,105.0,33.6875,-14.6472,-3.04365,-6.7119,-0.694914,-0.326928,-0.920166,30.1829,-17.6112,-11.336,35.9375,-0.0367993,-1.78602,-11.2204,0.0504176,-0.104941,0.0589781,5.52872,-2.5167,35.5772,34.4375,9.40972,1.81341,-1.62888,0.283499,-0.0819403,0.116992,-2.17531,-5.58184,-0.153049,4
standing,82.0,35.125,-9.00728,2.23928,3.43846,-0.274553,0.129593,0.730312,25.2456,-19.2201,-27.589,37.0625,-0.329135,9.92448,-0.26697,-0.0310714,-0.248903,0.00293708,15.3112,-32.2373,-6.76928,34.3125,9.79277,0.325441,-1.03687,0.154522,0.0845738,-0.0787205,-28.6266,19.2308,20.7163,5
walking,127.0,31.0625,-14.3175,2.06751,5.01445,0.482506,0.997912,-5.2581,40.7014,-3.22589,-24.734,36.0,-0.154073,7.0718,-4.39767,-0.535562,-0.724213,0.814561,14.0167,-24.1113,29.5583,34.3125,0.243111,-6.91338,0.0292166,-0.425576,-0.879919,1.79892,-17.5547,-23.1384,-10.6771,2
transient activities,110.0,32.75,1.57084,7.36489,4.61877,-0.713439,-0.555224,-1.05813,-18.1132,-19.0265,-44.0376,36.6875,1.47757,9.65894,0.308717,0.339394,-2.5535,-0.106225,29.4527,-44.7502,-9.41993,34.9375,10.1314,-0.79663,-3.3804,-3.09975,-0.0383131,0.163639,-69.8026,-11.0555,12.2385,6
vacuum cleaning,103.0,34.125,-10.4746,5.34684,-2.48257,-1.12539,-1.06843,1.64146,38.9319,-19.6933,-13.9657,36.6875,1.78361,8.19326,-4.67598,0.0146582,0.401161,-0.0234872,3.73374,-34.0199,9.7988,35.1875,10.3978,1.72681,-1.07795,-0.231927,-0.21382,0.400348,-48.1383,12.0209,-3.73913,6
transient activities,141.0,27.9375,-9.82138,2.4956,1.69347,-1.69608,0.538543,0.310492,39.2505,-2.45526,-5.8033,33.25,0.0777432,9.99563,-0.685761,-0.166006,0.00190467,0.0634138,2.95054,-23.2935,16.0776,33.875,9.28411,-2.85923,-1.21527,0.0550958,0.011161,-0.0591894,-31.1924,5.79489,5.26313,6
transient activities,118.0,30.625,-0.37923,-6.9991,4.715,-1.31204,0.392293,0.370949,22.1972,25.0039,-17.3525,34.125,1.97619,9.54521,0.434283,0.0247603,-0.0835198,-0.0861773,2.62672,-28.3121,16.9499,31.8125,9.8909,-0.697852,-1.33823,0.0853806,-0.167015,-0.267168,-29.1932,12.1228,2.00068,8
Nordic walking,113.0,30.25,-16.1395,11.1212,1.80065,-0.0987319,-0.522321,0.542773,26.0742,-15.0463,-29.4533,35.6875,-0.519909,14.7505,0.565747,-0.0319423,0.0947442,0.274788,18.7096,-22.0487,-3.70139,34.5,11.717,22.7657,-7.33073,-2.49443,0.129125,-0.0687317,-22.7668,32.7806,-0.411819,6
lying,80.0,33.6875,6.84026,2.85958,6.09845,-0.0132578,0.0163156,0.0114542,7.05169,-0.0321017,-45.1453,36.875,1.2841,3.841,8.49424,-0.0173671,0.024035,-0.0270389,30.6604,-3.1444,-26.6693,34.5,-0.439559,-9.46021,-3.74376,0.0123369,-0.0256492,-0.0013545,-12.7892,23.8327,-4.52119,2
ironing,85.0,35.3125,-4.56985,8.56074,-2.78984,0.445597,0.277319,-0.30586,1.20259,-35.0297,20.1928,37.375,1.19251,9.37472,-2.87064,0.258972,0.232122,0.592682,-3.41136,-37.8664,-6.16257,34.5,10.2046,-1.75797,-1.94587,-0.386215,0.0440293,-0.129364,-36.3716,26.8803,38.8347,5
lying,65.0,31.25,0.362724,4.67702,8.45848,0.0110467,0.0164972,0.0025859,-5.88123,15.8199,-32.8565,34.125,0.733262,2.22939,9.34136,0.00359935,-0.0116419,-0.00735865,35.9058,4.68819,-32.7804,31.0625,-0.925225,-8.64814,-5.18159,0.039053,0.0121686,-0.0214107,-12.5598,29.4199,-6.89629,7
descending stairs,168.0,33.875,-8.02641,-1.52906,-1.26809,3.24521,0.313415,0.356897,40.6086,11.6347,16.9429,37.9375,0.184667,7.62285,-0.714832,0.154427,-1.65581,0.0539902,37.4599,-27.3998,11.9699,33.8125,14.9898,-4.82539,-15.9244,-5.20716,-1.09264,-4.67669,-29.698,29.2407,35.3096,8
standing,93.0,34.1875,-8.52607,4.67513,0.473919,-0.0934128,0.0348639,-0.0224178,23.9471,-25.5578,1.95053,37.5,0.566035,8.98779,-4.70062,0.000784187,-0.00467219,-0.0595654,-8.26297,-25.5178,8.1349,34.875,9.62417,-1.60744,-1.33532,-0.0236264,0.0240903,-0.0277658,-18.9455,-17.524,36.0588,2
descending stairs,164.0,32.1875,-13.0971,11.1784,2.38485,5.9149,-0.0245226,-0.735503,43.7696,-9.51358,1.89644,36.75,-0.674216,8.85392,-2.82532,-0.143011,-0.22252,0.713772,-5.34657,-25.4858,30.611,34.8125,23.3025,1.52234,0.136164,-2.05567,-2.43225,5.32962,-38.137,-14.9105,22.9993,2
transient activities,137.0,32.125,4.65906,2.746,4.21877,0.0274443,0.242071,0.01426,-60.3996,-15.5795,-71.9681,36.75,-0.828322,5.93633,-0.0307252,0.182272,0.0836708,0.172764,13.8453,-70.9867,-36.9449,34.0,8.11063,-1.59314,-1.92978,2.74067,-1.95613,4.13989,-63.1232,-26.205,17.6369,1
vacuum cleaning,92.0,34.125,3.64411,1.99778,4.51399,0.740379,-1.15077,-0.212744,-22.0273,7.98273,-50.8863,37.3125,-3.89604,8.14436,-3.50092,-0.381771,-0.745114,0.464407,15.8783,-44.3896,1.34091,33.125,10.5735,0.180557,-2.49437,-0.028949,-0.454806,0.214291,-55.1568,30.7242,20.4678,7
walking,112.0,34.8125,-11.2034,4.87687,-0.529051,2.21604,-0.697499,0.383518,43.0142,-19.5376,-12.0065,38.375,4.2843,11.3518,-4.13757,0.186952,0.276108,0.0792042,2.8825,-38.3744,10.8046,34.375,10.8256,5.04916,-3.75686,-1.62238,-0.651384,-1.77685,-42.916,-0.40666,17.8521,5
transient activities,137.0,27.5625,-10.3104,4.07226,3.60519,-0.726183,-0.35954,0.389425,53.3017,-10.0432,-24.2895,32.75,2.34441,11.5732,-0.185173,0.147348,-0.0701159,0.466437,-0.134557,-54.2493,5.51561,32.75,9.85739,-0.573989,-2.53562,-0.147059,-0.0512929,-0.325775,-47.786,4.32928,13.4327,4
walking,118.0,30.75,-17.9199,2.11045,2.42018,-3.10736,-2.49908,1.16413,42.0089,-12.4111,-18.7143,37.0,-0.994013,10.1572,0.417205,0.0999905,0.744708,-0.0859606,-4.46019,-32.9421,-12.5331,34.625,10.4924,-1.45226,-2.40789,-0.30393,-0.557678,-0.61531,-34.7064,24.6519,17.2043,3
transient activities,112.0,33.8125,1.16041,9.65888,-2.24587,0.0166272,-0.0892596,0.0452026,-41.204,-35.4616,16.7088,36.8125,0.0933292,9.68936,-1.42018,-0.0485926,-0.0314631,0.0287314,-37.6672,-44.8514,-6.43383,34.9375,9.69025,-2.02364,-1.5636,0.0260493,0.0291944,0.00549782,-24.2135,-15.0095,68.8063,1
cycling,132.63636363636363,34.0625,-4.12349,2.82083,9.09032,-0.175978,0.0249171,0.0330034,34.3498,-3.69725,-27.0454,37.5,0.869809,7.98805,-2.05884,0.0169451,0.0136352,-0.138775,2.87545,-21.2382,26.4998,34.125,12.9291,1.41047,-1.47452,-0.623945,-0.222365,-1.85133,-30.8901,-19.5775,7.13744,5
transient activities,107.0,34.375,-9.87324,5.31325,-1.47278,-0.691098,0.722482,0.902775,43.2324,-27.8722,-24.5546,38.0625,3.1062,9.78451,-2.60498,0.490332,1.70091,-0.233856,5.00858,-48.3888,16.0934,33.625,10.2528,1.16666,-2.11788,0.302088,-0.167823,-0.440695,-47.4843,9.82555,5.05931,5
transient activities,94.0,29.875,-9.13306,2.6341,0.818099,-0.599334,-0.453355,1.17352,22.7193,20.9872,-43.5756,32.1875,1.26787,8.19636,1.08409,0.0600758,-0.173082,-0.213273,25.0001,-26.8086,9.62381,29.8125,9.72686,0.15455,-3.31327,-0.406481,0.113164,-1.10793,-70.8661,2.57375,-11.7507,7
running,160.0,33.8125,8.6039,0.834287,1.82111,1.01723,-0.530798,-0.767348,43.7759,-26.6553,-17.2141,36.4375,0.313115,-6.21983,-4.11367,-0.178723,-0.260412,0.925839,-12.0236,-37.7093,23.9515,34.0625,23.6269,34.5235,-19.6302,2.56785,0.906697,6.15847,-41.1742,9.4638,32.7392,5
sitting,71.0,32.0,-1.55409,3.70985,8.93337,-0.0548416,-0.0141497,-0.00511315,5.64638,-10.71,-29.2738,35.0,0.4237466666666666,9.353763333333331,2.92364,0.0068701799999999,0.0271066333333333,-0.0276575033333333,4.71792,-18.66123333333333,-6.981123333333334,32.9375,9.52134,0.612692,1.19676,0.0270322,0.00789422,-0.00651542,-14.0049,-4.44397,18.0862,3
standing,81.0,33.625,-7.56365,4.32286,4.33826,-0.0183684,0.0494274,0.0325107,22.8073,-31.9858,-12.415,36.0,1.35522,9.65749,0.0354588,0.0466252,0.0376706,-0.00861959,-11.5728,-24.6753,0.191949,34.75,9.20395,-0.478196,-4.47239,0.0133997,-0.0198991,0.00736735,1.31761,-0.366923,37.2969,6
running,128.0,28.875,5.91878,5.93915,1.76367,0.692137,-0.167576,-0.221744,12.301,-29.2931,-10.455,32.3125,4.18254,0.421925,-0.115626,0.218161,1.02373,0.0517478,-5.13645,-26.0056,1.19474,31.8125,6.29186,29.7716,8.39188,4.79089,-0.356523,-2.45908,-25.7578,23.3265,26.8955,2
transient activities,129.0,28.375,-11.0712,1.41602,2.90998,-0.0552676,0.27778,0.567498,47.2413,12.7446,-20.216,33.9375,-0.667867,10.1059,-1.43533,0.147952,0.927729,0.118043,29.7271,-37.0383,5.76666,33.9375,14.0279,1.89874,-6.32856,4.65261,0.135773,3.61549,-38.2418,-21.0426,-2.81497,6
sitting,71.0,31.8125,-0.174674,3.36325,9.571,-0.18402,0.243111,-0.084562,1.04725,-11.5186,-30.2714,34.6875,0.419262,9.00445,3.23446,-0.0579331,-0.150448,0.0322477,4.4131,-18.4185,-7.96604,32.625,5.05124,-5.62987,-7.41582,0.000619824,0.0731202,-0.140676,-13.5367,15.707,28.1996,3
standing,75.0,33.25,-9.43538,2.44707,0.852689,0.0498463,-0.0395608,-0.0229493,29.6399,-17.4546,-6.08657,36.0,1.56695,9.72819,-0.541749,-0.0197604,-0.112497,-0.0436005,-4.33818,-30.4838,-3.67286,32.5,9.26305,0.0856345,-3.81926,-0.0341295,0.0408459,-0.016608,2.57545,-6.4252,12.4877,7
walking,107.0,30.5625,-9.22773,-0.342478,3.05899,-2.54138,-1.53422,3.25824,39.5998,24.0756,-16.4635,35.4375,-0.86065,4.9506,-1.03485,0.084527,0.637028,0.0974463,20.2297,-24.4547,23.3957,33.25,8.81112,0.393513,-3.98017,-0.396448,0.03633,-0.336638,-38.9853,-18.5392,3.98745,4
transient activities,110.0,29.9375,3.86196,6.22694,6.65828,0.86031,0.0707286,-0.239429,8.40734,-25.517,-24.7608,35.5,0.716618,9.73689,0.333399,-0.0844828,0.0606146,-0.123522,4.39433,-29.2751,12.1735,34.375,9.75198,-0.319788,-1.03329,0.0450673,-0.0392359,-0.0210892,-29.0195,-7.32171,3.584,6
descending stairs,151.8181818181818,33.5,-8.09694,5.00637,-0.290518,-2.55814,1.67473,-0.025067,43.9128,10.0789,-4.18274,37.75,2.9194,9.48491,-2.4525,0.602352,2.46792,0.0347712,8.42277,-23.2415,19.9225,32.375,9.94797,-0.720471,-3.26698,0.232634,-0.262518,0.438137,-21.8359,-32.7483,16.12,7
Nordic walking,124.0,29.125,-10.4934,6.50883,4.36398,1.34348,-0.0885261,0.341645,49.4732,5.43635,-7.70911,34.5,-0.966089,11.0579,-0.0111475,0.295355,-0.102688,-0.464529,1.66384,-42.2142,25.7644,32.875,23.1257,5.88162,-8.18946,2.52629,-0.682186,5.65034,-44.2526,-2.94548,7.49664,4
lying,70.0,34.875,0.787338,7.53481,5.95352,-0.0292078,0.00288971,-0.0100775,-8.49371,7.02422,-33.0603,36.6875,-0.107551,1.36598,9.32894,0.0131017,0.0197486,-0.0164483,38.9152,5.99189,-29.1008,34.125,-0.423855,-9.18792,-4.55567,-0.0230603,0.0144174,-0.0191899,-14.1732,27.5709,-6.33249,5
transient activities,129.0,30.5,1.92674,9.56161,0.267621,0.0380193,-0.00812759,0.00214324,20.6727,-57.6802,1.41035,34.0625,-0.187099,9.72474,-1.89003,0.0119718,-0.0347715,0.00068613,12.1826,-39.5829,29.6321,33.3125,9.66752,-0.479303,-0.0298327,0.0386242,-0.000854974,-0.0246849,-60.0775,-35.9707,-11.4564,1
ironing,77.0,33.6875,-4.17918,1.98343,8.74592,0.140313,-0.0113294,0.00254028,7.71786,3.54194,-49.0824,36.5625,-1.27455,9.42244,-2.567,0.0188887,-0.263896,0.0519059,6.42052,-38.493,-0.591432,32.75,9.83821,-1.30158,-1.75951,-0.0342609,0.000615214,0.0885713,-35.2258,-0.84394,43.2676,7
running,177.0,30.875,3.20618,-8.76033,6.08322,-3.77116,-1.55963,0.455474,50.2911,21.7798,1.63882,34.1875,0.609858,9.29615,1.92046,-0.993258,2.2883,-0.830086,13.5018,-45.6211,29.3912,31.6875,5.05967,3.14702,-3.53406,-2.30872,-2.24116,-8.27113,-8.30908,50.8668,3.16386,8
transient activities,127.0,32.0,5.73822,2.37416,6.00661,-0.736649,-0.042126,0.352742,-15.1011,-17.1857,-32.925,36.5,-0.118486,9.14081,-4.67479,0.0425004,0.134242,0.0676077,19.8156,-30.4312,27.4313,34.625,0.26783,-5.12267,-0.753434,0.399976,0.69884,0.470438,-7.93502,-8.23406,-28.916,2
ironing,77.0,33.8125,-1.5386,4.5848,9.20006,2.3826,0.609381,-1.07954,-8.84503,-15.6737,-43.2893,36.6875,-0.334109,9.77283,-0.421451,0.0712792,-0.0298344,0.0397864,-3.05713,-31.1687,-10.4283,32.8125,9.37966,-2.4748,-1.8727,-0.0142339,-0.0347485,0.0433913,-35.0919,6.36747,46.0964,7
lying,69.0,34.25,6.48982,-2.02592,6.80245,0.0174526,0.0134253,-0.0216619,-40.7559,-7.00227,-15.8498,37.375,0.995825,-0.669976,9.47171,0.0122318,0.0146722,-0.00989277,34.5307,14.9234,-29.182,33.75,-0.9136,6.48296,-7.62934,-0.0138904,0.00765125,-0.013715,-14.6967,8.9301,37.6552,8
transient activities,126.0,33.5,-3.2041,1.64047,0.987236,0.888239,-0.64591,-0.165269,18.3261,-7.491,-32.1618,37.125,-0.110456,1.6716,-1.12677,-0.508509,-0.965563,0.587542,16.0388,-40.797,1.74122,34.875,17.8188,-1.73021,-6.53729,-2.54422,-0.333478,-2.65383,-32.6993,8.96759,-12.0674,1
cycling,119.0,29.8125,-8.69939,5.29745,6.24233,0.0140071,-0.304531,0.154367,42.4152,-4.62497,-33.6798,34.75,-0.8894,0.68567,-8.06872,0.0742078,0.0265976,0.322865,14.2802,5.06945,39.0402,33.6875,4.15152,4.17759,1.15816,-0.251583,-0.528633,2.36354,-25.6538,-22.2373,1.28156,2
lying,78.0,31.4375,3.72703,-3.9982,-8.20387,0.0105421,-0.00115951,-0.000497477,20.4841,51.544,30.0175,33.1875,9.05777,3.70866,-1.74171,-0.0218137,-0.0309183,-0.0265201,-40.7561,-5.41131,-43.446,31.875,-1.1873,2.13638,-9.84337,-0.0105428,-0.0194403,-0.0273519,-21.8149,21.2508,39.9617,1
transient activities,117.0,28.5,-2.07768,6.81719,-4.63251,-2.00791,0.215965,-0.293926,8.22472,-17.0495,12.0592,36.5625,-0.398929,9.61638,-1.3127,-0.0817336,0.0704799,-0.0551759,-0.764131,-20.5758,14.6294,34.375,9.71477,0.77246,0.0786524,-0.015664,-0.0250898,0.0308743,-29.4095,-3.25671,27.8796,3
lying,74.0,33.75,6.81317,2.86255,6.40593,0.0125807,0.0224307,0.00446867,6.95112,1.3852,-44.8974,37.0,1.5208,3.8421,8.76957,0.0487266,0.000787205,-0.0435196,30.3336,-3.34794,-27.6552,34.5625,-0.440066,-9.34598,-3.78306,0.00687689,-0.0107354,0.00664838,-12.3348,23.807,-3.78251,2
transient activities,119.0,34.6875,-2.08044,5.93931,7.45544,0.0400003,-0.0526362,0.0542105,13.5616,-26.1685,-30.804,38.25,0.3029,9.95649,-0.797717,-0.0116813,0.0219186,0.0628204,-4.14248,-31.7858,1.27105,34.375,9.82124,-0.546789,-1.18552,0.0361485,-0.0258328,-0.0138974,-22.6615,8.24499,19.899,5
transient activities,146.0,32.125,0.737674,4.82486,8.34814,-0.054771,-0.121628,0.0992103,-9.2042,-9.6955,-39.7816,35.625,-0.142117,9.59316,0.937844,-0.164611,-0.00455256,0.0592393,6.87123,-28.1782,-14.0423,33.5,9.46761,2.56772,-1.05412,0.013035,-0.00375908,-0.00351059,-26.135,18.347,25.1229,4
walking,96.0,32.3125,-13.3058,4.45198,1.01887,0.825679,1.95069,-2.07683,48.1364,-14.7204,-8.24033,36.625,-0.717845,8.79504,-0.425225,-0.0354688,0.37281,0.23447,-4.89628,-39.3568,-8.42051,35.0,10.8888,1.75449,-4.85487,2.2636,-0.428117,5.09037,-41.6108,7.78801,24.6552,6
transient activities,96.0,29.8125,-6.63582,-0.441049,7.02386,-0.0570068,-0.0435339,-0.0378427,31.6304,-5.41282,-25.9797,35.375,-0.449825,6.63463,-7.92521,-0.0420994,0.0274511,-0.03499,0.678199,-9.42668,31.6346,34.375,9.63437,0.138795,-1.30746,0.0328151,0.0295302,-0.0149624,-27.5606,-5.01507,24.5776,6
walking,104.0,32.9375,-17.8289,3.03244,3.76549,-0.245391,-0.0144716,0.523828,48.0557,-19.3062,-5.98141,37.875,2.31255,12.7876,1.20426,-1.26646,0.167367,0.31884,-8.91182,-37.7818,-16.2126,32.1875,13.4358,5.29087,-2.80545,2.66322,-1.12389,-4.02293,-27.7427,28.7653,38.1537,7
lying,95.0,34.6875,-8.8279,3.09672,1.89876,0.0739688,-0.0174393,0.185308,50.4838,12.333,-6.04697,36.3125,1.33207,9.69863,0.538278,-0.109462,-0.0860462,0.0778674,2.57105,-40.311,23.6449,34.0,9.59745,0.453787,-2.66043,-0.00563162,-0.0535675,-0.0119042,-37.8452,-49.7264,12.8212,5
transient activities,93.0,33.8125,-9.73696,1.8534,2.08177,-0.608878,0.0274424,-0.202358,37.3932,-21.6945,24.763,37.75,1.31074,9.84432,-0.19828,0.111221,0.474714,-0.178074,-29.3816,-27.3847,12.9148,32.625,9.1772,0.089321,-4.20606,0.144042,0.0637456,-0.227038,-10.032,-19.4687,47.491,7
transient activities,141.0,31.5625,-3.80663,8.33074,1.84085,0.0598392,0.201888,-0.367647,4.84266,-26.8343,1.22974,36.6875,-1.3269,9.67138,0.799963,0.0278692,0.204647,-0.171604,2.61037,-26.4011,16.1437,34.4375,9.88685,1.6883,-0.619879,-0.0632742,0.025218,-0.19486,-14.181,-15.37,18.8376,3
standing,89.0,35.0625,-8.14196,2.69585,4.33509,-0.128036,0.031638,0.00376499,33.7991,-15.088,-31.8308,37.0,2.63249,9.37705,-1.83782,-0.034683,0.375179,-0.0385587,0.725236,-37.2518,0.0669156,34.25,9.31884,-0.832595,-3.00261,-0.00870261,0.0424733,-0.0787571,-39.5765,-4.80669,22.9749,5
descending stairs,116.0,32.25,-10.8738,1.39834,5.3377,-1.95911,0.682051,0.0451336,49.5776,-4.83755,-66.3996,36.5625,-0.461663,11.4233,4.13994,-0.742618,0.494996,-0.279006,19.5588,-45.0511,-10.2238,34.1875,19.77,-8.19184,-2.50246,1.27847,-0.893147,-2.32526,-44.4632,-9.3282,26.5764,3
cycling,131.0,28.0,-8.19098,-2.43898,2.88916,0.132243,-0.0310236,-0.218799,52.6078,8.74791,-1.56764,33.375,0.0661568,7.4656,-7.29903,-0.120471,0.0924798,-0.0528203,11.9713,-7.28079,47.4935,32.75,4.67032,2.13305,0.0570666,-0.257057,-0.0682649,0.401647,-2.0602,-37.2366,7.40118,4
cycling,126.0,28.8125,-9.75179,-0.138006,4.24356,0.18772,0.571684,0.0671025,28.9743,25.5049,-26.1618,34.0625,-0.586808,3.69466,-8.42151,0.0923279,0.159434,-0.299332,22.3901,-22.5999,23.4002,32.8125,4.51061,1.29438,-4.06845,0.254268,0.0191775,-1.35993,-38.3773,-3.4024,-4.39606,4
transient activities,113.0,28.875,-5.98706,-0.813371,8.38189,0.472241,-0.188039,0.443202,43.6601,-11.2788,-43.2911,34.125,1.24147,7.84556,-6.23351,-0.0423493,-0.0114818,-0.087411,-10.7246,-27.462,44.9121,32.75,8.32469,4.62345,-0.847062,0.0414344,0.0368245,-0.0605602,-25.5317,-27.158,15.675,4
descending stairs,175.0,33.9375,-5.95036,-2.08448,2.0748,-0.660542,0.769878,0.843706,44.5624,13.1309,-27.4306,37.9375,-2.04252,6.41307,-2.49369,0.0240483,-0.836654,0.00355,0.444905,-37.622,-5.99612,33.875,8.7209,-5.30548,-3.44406,-4.13833,-1.70399,-4.19988,-32.5606,-11.9263,-2.38006,8
ascending stairs,144.36363636363637,33.8125,-10.3875,4.92519,5.56401,-1.87155,1.58876,-1.71347,59.1904,-53.7448,29.3652,36.875,2.14698,13.5692,-5.77105,0.785952,-0.0813828,-0.697646,-36.7875,-26.4408,54.2805,34.9375,14.3282,-0.693966,-0.559548,0.391944,1.1065,-1.20679,-59.4449,-52.8593,-4.09118,1
transient activities,98.0,34.5625,-9.55144,3.39408,0.578344,3.58716,-0.67148,-2.10035,34.7696,28.9578,-38.2066,38.1875,-0.312998,5.3573,-1.87811,-0.209255,-0.0989311,0.0938253,23.267,-18.7378,43.5572,35.4375,25.5828,-2.15852,-1.86286,2.10387,-1.92952,6.88137,-48.9574,-29.4218,-10.7348,2
transient activities,117.0,32.875,-9.24776,2.25592,0.856144,0.278534,-0.315657,-0.292089,26.0504,-4.12459,-29.5194,36.6875,0.762885,14.2631,1.48115,-0.329888,0.489711,-0.504065,18.1832,-22.3045,12.7939,34.9375,22.2631,-4.61836,-4.9688,-1.49565,0.747674,-3.24198,-42.7816,-8.05077,3.8201,6
Nordic walking,125.0,30.25,-7.88829,5.58771,1.25014,2.1027,-0.432408,-1.82457,45.5573,10.7874,-2.41864,35.25,0.350541,12.6793,-4.60036,0.191722,0.0277553,0.111286,-5.59784,-7.23167,39.3348,34.0625,14.3123,29.8091,2.29957,0.117116,-1.1012,2.47809,-37.1306,4.71875,29.3894,2
cycling,127.0,34.1875,3.90587,2.42141,5.44018,0.499848,-0.301191,-0.123283,12.6046,-30.9651,-42.3214,37.75,0.539068,1.80556,-8.8209,0.248522,-0.0697655,0.114418,9.14482,-5.36871,45.3479,34.1875,18.9297,0.401577,-3.41338,-0.519456,-0.390557,-3.57857,-33.0658,-22.9317,11.6723,5
ironing,86.0,33.875,-5.96322,1.56879,7.489,-1.80243,0.76633,0.419235,0.591404,-7.0032,-56.4842,36.25,0.511474,9.84708,-0.174048,0.0202056,1.00159,-0.208027,-3.92395,-36.6773,-15.1972,34.9375,9.61631,-0.578432,-1.80486,0.0705309,0.0681822,-0.0696424,-38.5047,14.8948,42.245,6
ironing,89.0,33.75,-3.07402,9.13396,3.19617,0.410493,-0.361394,1.01336,18.4193,-41.0557,-7.88919,36.125,-1.56342,9.5863,-0.752884,-0.10587,0.355016,0.11416,-1.4594,-35.0971,-9.97183,34.9375,10.4234,0.105568,-2.49544,0.156474,-0.0388062,1.92256,-35.8054,7.41877,41.2704,6
transient activities,112.0,33.75,-8.6253,7.62503,3.54147,-0.983487,0.534657,-0.399776,23.4258,-15.4767,-26.5198,37.8125,2.29604,9.55901,-2.92869,0.284323,0.0875024,-0.0146134,19.8495,-27.2065,4.63668,35.125,9.84501,-1.26554,-1.52813,0.0535,-0.0159158,-0.0161219,-20.0295,10.1717,5.04706,2
ironing,88.0,34.125,-5.29433,1.72196,8.22976,0.0623353,-0.0013895,-0.0115268,7.6395,-0.930249,-62.1783,36.5,0.66296,9.76236,-1.48754,-0.0085006,0.0483164,-0.116808,-4.22044,-38.8633,-10.8157,35.125,9.29172,-0.748627,-3.96815,-0.0288417,0.0152296,0.033581,-27.0333,19.1068,49.2303,6
walking,119.0,29.625,-17.7959,2.68034,2.61255,-3.53178,-2.07444,1.57589,42.8792,-10.4462,-14.6526,36.9375,-0.932103,10.7935,-0.125835,-0.0948864,0.845329,0.0793809,-4.04475,-31.8375,-12.6479,34.5625,10.7263,-0.0874566,-2.33678,-0.0935696,-0.394559,-0.685699,-36.5512,21.0603,18.4189,3
transient activities,107.0,33.8125,3.02845,2.00089,8.54593,0.0136589,-0.0199378,-0.0161037,12.3485,-25.3625,-35.662,36.6875,1.9578,9.06322,-4.01739,0.00140585,-0.0393015,0.0179313,-2.74352,-21.0277,23.4984,34.0,9.28039,1.29742,-3.44071,0.00546794,-0.00461676,0.0397871,-21.047,-9.74235,16.0961,5
transient activities,104.0,32.3125,3.77102,-7.45922,3.58561,0.124563,-0.918657,-0.0762559,14.4606,31.999,-10.0302,36.9375,2.30741,9.55022,1.33085,-0.18873,0.949548,-0.209842,17.1153,-31.9412,16.2253,32.4375,7.61359,-3.78778,-7.13085,1.74134,0.411243,-0.297562,-40.2697,11.295,14.1602,8
Nordic walking,122.0,29.375,-9.2098,7.77647,2.99338,-0.447358,0.685996,-2.83953,47.3498,0.705932,-13.5816,34.75,1.75376,9.45457,-1.93143,-0.227382,-0.887814,0.375965,7.69444,-24.3901,33.8834,33.0,1.23531,-7.26737,0.77479,-1.97322,-0.469666,2.06101,-7.10306,-35.6116,-7.08532,4
cycling,132.0,34.0625,-0.397141,18.763,13.0566,2.67647,-0.251523,0.730647,12.6426,20.9056,-42.1111,37.5625,-0.156041,9.47359,-11.143,0.244543,0.252092,-0.39023,31.1162,-23.5532,10.4939,34.125,10.7909,-3.75685,0.619461,0.0125981,0.0827054,-2.24303,-36.0752,8.29256,-16.1736,5
descending stairs,102.0,33.8125,-5.90426,0.937329,0.602776,1.29804,-0.914304,0.0871115,37.9065,-50.1705,-20.078,37.75,1.09593,7.16764,-0.774285,0.0500608,-1.90637,-0.211148,-2.73435,-54.122,-24.2551,32.6875,7.96732,-2.24646,-5.51602,-1.35611,0.177847,-0.27403,-43.4089,36.2229,31.8493,7
descending stairs,130.0,33.8125,-19.8651,4.30032,7.96432,0.166647,-0.158625,-0.707951,75.2777,35.8075,-34.3147,36.6875,-3.81769,16.9905,-9.41384,1.30263,-0.70344,0.0306354,-5.43773,-61.8776,51.3987,34.9375,4.75123,2.48846,-6.35018,-1.72294,0.175903,-2.72173,-1.52314,-96.4867,-13.1997,1
rope jumping,177.0,28.5,6.41893,3.95967,5.70355,-0.662352,3.43838,-2.60642,11.35,-43.0947,0.864225,32.1875,-0.621492,0.832994,-2.87574,-0.0831155,0.31588,-0.169972,-18.9164,-34.1964,18.5032,30.3125,6.21541,0.153542,-0.493647,-0.320258,0.0824995,1.58844,-39.2794,0.222838,33.0724,2
transient activities,84.0,35.4375,-10.2157,2.8829,2.22508,-0.228218,0.213322,-0.915014,44.5188,-0.622755,0.21159,37.625,1.0455,10.2883,-1.48232,-0.155626,0.0495352,0.44183,-13.0163,-34.1847,18.4255,34.5,8.89706,-1.29405,-1.96216,0.487873,-0.447178,-0.837483,-56.39,2.48409,28.0133,5
sitting,76.0,32.875,-2.12812,6.05073,7.14646,0.00425382,0.017375,0.0083747,9.70283,-21.8615,-22.161,35.0625,0.445738,9.92495,0.172997,-0.0342005,0.0327315,-0.0495384,3.49339,-23.8117,-0.695156,33.8125,9.48867,1.96384,-1.51323,0.010818,-0.0199061,-0.00130464,-3.83649,-5.68947,22.5344,4
vacuum cleaning,99.0,34.125,-7.08888,4.19154,2.80632,0.610606,-0.0172615,0.0920508,34.8472,-17.8855,-48.6137,37.1875,-3.73356,7.46004,-4.38634,-0.0374186,-0.179507,0.25708,23.1904,-47.3805,13.5351,33.0625,9.40303,-1.79714,-1.18205,-0.172638,-0.124291,0.172899,-41.2981,32.4759,19.3798,7
cycling,137.0,29.0625,-8.89591,0.174474,5.98726,0.0679128,-0.134335,0.49564,20.7563,21.4616,-47.3802,34.9375,0.28377,5.72261,-8.79954,-0.817675,0.364043,-0.260625,17.3611,-37.7601,22.3232,34.1875,8.82271,-1.4078,-1.92362,0.243161,0.0580371,0.22218,-43.9757,18.6615,4.63591,6
rope jumping,181.0,30.1875,-10.5951,13.8684,-0.0884235,-0.54028,3.39539,2.04305,34.1494,-60.2647,6.20448,33.8125,-5.08138,66.1258,11.6226,-2.13109,0.206611,-0.583684,-33.5535,-56.6148,18.496,33.125,27.7205,-1.27262,-9.7187,0.857262,-1.53525,-2.94525,-47.8176,-34.8545,38.7094,1
transient activities,108.0,34.375,-7.33148,2.95785,0.420631,-0.304706,0.211872,0.760985,32.0742,-25.0582,-47.121,38.0,1.7476,8.71807,0.510272,0.0284781,0.258512,-0.126505,24.3319,-47.2701,-8.87723,33.5,9.54838,-0.721396,-2.84659,-0.296863,-0.0837075,-0.502139,-58.1351,-2.79454,-1.48779,5
transient activities,101.0,34.5,-11.7856,3.38204,1.5071,1.31372,-0.0626477,-3.33036,32.1475,-23.8883,-29.4879,38.1875,1.74518,9.51914,-3.51935,-0.359932,-0.661145,0.313477,11.5665,-36.525,3.02748,35.4375,9.97246,1.0109,-1.42518,-0.22803,0.370838,-0.897866,-53.6472,-0.430175,28.9744,2
transient activities,131.0,34.625,-8.98773,4.5825,2.43017,0.892469,-0.510658,-1.07583,39.5116,-10.4339,-38.9571,38.3125,1.10927,9.61666,-0.549678,0.221602,-0.765232,-0.225243,18.6806,-48.6095,-8.48594,34.3125,9.74355,2.08902,-3.09357,-0.796369,-0.293104,-0.905588,-42.5459,-13.0831,3.9686,5
descending stairs,114.0,32.6875,-6.96389,-1.56302,4.32861,1.48924,0.281749,0.42235,22.2522,15.0596,-37.502,35.5625,-0.694171,4.20069,-0.487305,-0.107165,-0.787007,0.284319,39.2895,-30.9348,-1.9567,33.5,9.38805,1.24934,-2.28162,0.0271658,-0.146814,-1.7339,-35.8051,10.545,-33.6206,4
transient activities,111.0,33.625,-8.55991,3.77725,1.86199,-1.16189,0.30187,-0.597631,39.4303,-15.1435,-36.435,36.0,0.850577,9.65696,-0.283449,-0.139419,0.271346,0.14759,20.0642,-36.0199,-10.3808,34.4375,9.83133,-0.0827297,-2.23022,0.116276,-0.176615,-0.0867847,-42.4303,-9.85522,9.07122,4
standing,73.0,32.9375,-9.13181,2.68206,1.93409,0.0060667,-0.013166,0.0216176,32.036,-10.3854,-6.92168,35.5625,0.495661,9.91876,-0.716661,-0.00172652,-0.0729315,0.0182912,-2.94658,-32.0858,-0.692986,32.3125,9.70559,-0.762562,-2.5746,-0.00362106,0.00676044,0.0115113,-2.27422,-4.79229,3.95882,7
transient activities,97.0,34.0625,-0.528214,-2.59322,9.31639,0.147644,-0.0405841,0.0284308,18.4859,-5.70589,-28.8384,38.0,-0.195993,10.1165,0.354352,0.0726788,-0.175858,-0.0603315,9.82347,-25.747,23.1896,34.0,6.80886,-7.21511,-0.59619,-0.155387,0.110342,-0.00367154,-17.0953,19.9865,-8.17779,8
transient activities,123.0,32.375,-9.08948,2.75865,2.04993,-0.00834747,0.0511888,0.029356,16.6532,-24.527,-28.3915,37.0,0.499255,9.10306,-4.39243,-0.0261033,-0.0267643,0.00541134,4.02149,-35.468,-11.6723,34.9375,9.6948,-1.15036,-1.56897,0.0342112,0.0197552,-0.0126872,-15.6661,50.3241,19.0553,2
lying,71.0,31.3125,6.80809,2.70979,6.29091,-0.0426434,0.0100151,-0.0459536,5.60923,1.24671,-44.9993,33.625,1.18396,-0.294815,9.35773,0.0555641,-0.0269079,-0.0159308,31.83,8.89672,-27.9837,31.625,0.626737,-9.77046,0.899852,0.0184479,0.0325543,-0.00866996,-16.0075,18.9332,-9.25072,3
Nordic walking,109.0,30.625,-0.890867,-9.63315,2.48395,-0.140079,-0.328173,0.0337722,9.14849,22.0948,-27.4133,33.9375,0.456578,9.70162,0.561128,-0.0336743,0.0482112,0.0238755,-4.9211,-25.5611,-4.12788,31.8125,9.77911,-0.393071,-1.37986,0.0316518,-0.00767566,-0.00349832,-26.3152,-8.45219,15.2251,8
transient activities,124.0,33.5625,-5.24181,4.51815,6.98952,0.0260665,-0.0227333,0.025748,0.888359,-10.7115,-11.581,36.75,1.58724,9.61989,0.155947,0.0261065,-0.105511,0.0808665,-2.41007,-14.1687,-10.8023,35.125,9.1789,-1.69841,-3.80906,0.0206075,0.0448931,0.0111449,-27.9921,16.7723,27.2456,6
running,175.0,30.25,-4.27765,8.42513,3.48843,0.72279,-0.559132,0.262362,41.912,-45.7712,-21.966,33.625,-0.803548,9.38647,-2.0937,-0.0923301,0.508506,-0.0650612,2.64752,-60.4232,21.7369,33.0,9.67761,-1.48758,-2.10731,-0.265682,0.0242624,0.223675,-130.236,17.4586,-1.77192,1
walking,105.0,32.625,-11.114,3.10953,1.32565,2.90806,0.635172,-1.65676,36.6668,-7.27799,-1.04447,36.6875,0.425243,8.22692,-0.363949,0.285832,-0.85915,0.249523,-6.73023,-29.3756,7.58456,34.9375,8.93416,0.319567,0.343585,0.744746,-1.33591,4.94395,-19.9857,-14.2821,22.6294,6
ironing,77.0,33.9375,5.4398,-6.17312,4.60694,1.9239,0.00272476,-0.0221763,-30.7888,25.106,-11.734,36.875,0.991873,9.47456,0.649006,0.113431,0.056492,-0.0704415,-6.1881,-31.5638,-15.383,32.875,9.39862,-1.36688,-2.72835,0.0576283,-0.0505023,0.0276779,-29.6489,9.83758,48.8063,7
ironing,92.0,34.6875,-6.04514,-2.37093,8.11686,0.174842,-0.0704886,-0.611412,19.6782,11.589,-50.9926,37.75,0.132042,9.91516,-1.42021,0.062489,-0.0874699,-0.0545324,-2.63355,-38.4029,-13.7683,34.5625,9.38344,-0.27037,-2.15647,-0.223919,0.0793912,-0.0821282,-35.1396,-25.0718,-6.91251,8
sitting,77.0,33.5625,-5.31788,2.35989,7.41903,0.0932235,-0.118854,-0.0149154,17.403,-9.61774,-26.7127,35.9375,-0.836108,8.34032,4.64655,-0.16368,-0.205557,0.0650164,6.99908,-18.8966,-14.7991,34.75,9.3868,-1.09724,-3.19322,-0.00485109,-0.00534048,0.0153332,-18.0251,-3.72419,12.4121,6
cycling,123.0,29.0625,-8.21553,2.13984,9.95502,-0.49307,-1.18438,0.802024,36.5175,-8.47655,-37.5885,33.25,-4.4439,6.19736,-7.68638,0.400498,-0.34875,0.518159,18.5634,-27.6204,30.1128,32.3125,0.765498,-1.32041,2.85549,-0.784636,-0.625059,-1.96818,-17.6083,12.3563,-25.0277,2
transient activities,119.0,30.625,-0.256559,-9.21378,3.26179,-0.78818,0.413246,-0.168849,19.8445,27.2461,-7.1252,34.125,1.16524,9.884,0.0312808,0.136478,-0.162319,-0.0378545,4.80604,-28.006,17.2453,31.8125,9.64526,0.754729,-2.35309,0.0309286,-0.0506498,-0.0684978,-29.6846,11.3757,2.28349,8
transient activities,120.4,34.4375,5.37283,5.48574,5.72122,-0.0302043,0.0640793,-0.154345,21.6455,-39.2743,-54.8876,38.0,0.345624,8.944,-5.71121,-0.0295976,-0.255338,-0.0367768,-0.847214,-8.61916,53.052,33.625,8.72655,0.424163,-3.01649,0.084813,0.65493,1.25536,7.7505,-41.2892,21.4818,5
transient activities,132.0,27.9375,-3.4432858823529413,8.570034999999999,-3.751029411764706,0.0314643882352941,-0.0544082176470588,0.0084034411764705,29.420797058823528,-25.009279411764705,25.907002941176472,33.3125,0.553666,9.65973,-0.0177908,-0.0397912,-0.0316476,-0.0319332,-19.2686,-38.9766,11.641,33.9375,9.72284,0.221088,-2.15604,-0.0327634,0.00274603,-0.00435785,-38.4201,-11.3973,34.1914,6
vacuum cleaning,99.0,34.75,-7.87952,7.97587,1.01129,0.557155,-0.366171,-0.450515,46.4012,-14.3703,5.54043,38.25,5.32613,7.8054,-4.64926,0.278829,0.170822,0.240234,1.90844,-29.2022,30.0634,34.75,9.7541,0.494794,1.50859,-0.93366,0.0967799,0.281678,-31.9897,18.8693,15.8826,8
transient activities,126.0,27.5,-4.94452,7.6934,-2.52312,0.461427,0.391455,-0.121479,31.6329,-26.6103,8.26921,32.5,1.75801,8.18484,-0.378388,0.423161,-0.00901385,0.195668,2.42137,-40.0404,16.8741,32.75,9.79318,1.8844,-1.31667,-0.116796,-0.313259,0.945621,-36.9789,-18.0971,13.2131,4
transient activities,116.0,31.25,-12.5992,4.27376,2.91594,-1.12382,-0.703397,1.29563,39.923,-16.0225,-16.1833,36.8125,-0.113687,12.4132,0.348379,0.00348979,0.564649,0.273041,-8.34676,-33.553,-4.87048,34.5,10.427,-0.275724,-2.30009,-0.138446,-0.49789,-0.90814,-57.4021,-0.242825,7.96477,3
walking,120.0,33.25,-15.6432,2.85273,2.56724,-3.61197,-0.111739,3.99458,73.1416,3.05883,-33.6017,37.25,-0.838761,8.1743,-3.17459,0.3211,0.319227,-0.587161,19.5282,-71.4921,34.1133,34.75,10.3477,1.62736,-2.81438,-0.475971,0.249186,-0.44671,-68.3208,-19.2331,-3.65992,1
sitting,81.0,33.0,-2.51485,6.31654,6.83187,-0.0348382,-0.00811649,-0.0113419,8.70444,-21.0642,-22.9512,35.125,0.876281,9.57001,-1.98642,0.050214,-0.0165769,-0.0371937,2.38791,-23.9048,3.95082,33.875,9.63006,1.84055,-0.469099,0.0268675,-0.0491135,-0.0180788,-6.75838,-6.44581,22.2413,4
cycling,133.0,29.5,-10.744,4.56331,2.98124,-1.4972,0.354799,-1.06656,12.219,-15.6863,-50.8121,35.1875,-0.127437,5.3118,-8.49588,0.197147,0.090314,-0.833344,-2.03348,-37.8235,27.2648,34.25,10.4473,-0.178285,-0.293831,-0.520553,0.18357,-1.84331,-46.1501,13.693,29.3128,6
descending stairs,119.0,32.6875,-1.99837,1.36636,5.31681,0.647265,-0.492854,0.287747,25.7476,-13.8032,-51.9008,35.5625,0.0367251,5.44176,-0.361934,-0.177717,0.274874,-0.143213,13.1387,-39.7642,-8.57472,33.5,10.2371,9.95062,0.91461,1.27903,-0.428042,2.30785,-27.3769,31.7126,-3.9726,4
transient activities,88.0,34.8125,0.633856,-5.38884,7.45734,0.00383477,1.0511,-1.72806,-0.192739,8.43293,-47.2588,38.1875,1.94486,9.80153,-0.651304,-0.102584,0.0541672,0.354795,-8.27757,-35.7486,-9.73356,34.8125,9.58375,4.57059,0.0151484,0.987352,-0.45918,0.524931,-15.5623,-11.606,0.799671,8
transient activities,109.0,32.4375,-8.67228,3.40942,3.05465,0.0238016,0.0147266,-0.00900304,52.2553,-2.40141,-0.711918,34.3125,0.858014,9.59214,1.26573,-0.0108867,0.00415734,-0.0179951,-0.566046,-41.2226,19.5391,33.0,9.49801,1.43943,-2.39744,0.0160689,-0.0420361,-0.00149835,-46.0341,-57.0904,-3.36789,4
vacuum cleaning,98.72727272727272,34.125,-3.86478,9.05406,-2.16515,-0.247409,0.199528,0.102048,13.3524,-44.2587,-6.02225,37.1875,-1.26946,-0.496957,-10.5112,0.190056,-0.0120907,-0.318104,3.47068,-7.35425,47.7167,33.0625,9.69485,-1.98696,-1.40942,0.181543,0.0524908,-0.0994314,-43.1999,21.7671,23.0732,7
cycling,127.0,29.0625,-6.99319,2.48319,7.00864,0.447776,-0.0987215,-0.566978,30.665,0.370854,-47.6103,33.3125,-0.93773,2.29285,-9.85598,-0.0313954,-0.104491,0.828915,18.6909,-16.632,37.7294,32.375,6.94529,6.70073,1.55704,-0.426749,-0.516492,0.0417266,-34.3547,-13.554,-6.4765,2
cycling,120.0,32.8125,-5.48633,7.17627,7.01538,0.291573,-0.129385,0.0817577,55.867,-0.631471,-34.3254,37.8125,0.559012,7.76451,-7.40723,0.436902,-0.242765,0.0620726,12.3187,-15.6707,42.0443,32.25,2.2377,1.32255,-1.12054,0.79156,-0.0511895,2.18722,-30.0472,-31.4766,2.89925,7
transient activities,101.0,34.5625,-8.07667,-5.02471,2.36077,-0.0908048,0.0273777,-0.0226254,23.0778,25.07,-33.6274,38.125,0.713434,9.39749,0.257003,0.126481,0.0222659,-0.0434862,17.6981,-35.1529,-16.0424,34.5625,9.17423,-0.480208,-4.20256,-0.0471727,-0.0450387,-0.0355657,-31.4044,-16.9896,46.4201,8
transient activities,87.0,33.875,-2.13927,10.0429,3.82291,-1.85898,1.70681,1.85266,17.8017,-24.0406,-36.0748,36.75,-0.930843,9.39264,-1.24417,-0.424971,1.40461,-0.16256,19.5407,-31.3784,9.18876,35.1875,7.86642,2.23331,-0.72116,3.72621,-0.0653489,-1.50756,-24.4302,-21.4336,10.85,6
lying,66.0,33.5,4.92929,-0.255085,8.27411,0.0218125,-0.00235307,-0.0204432,14.2035,23.5539,-39.8994,35.6875,0.648812,-1.30953,9.39006,-0.0140923,0.0202347,-0.00476164,36.5379,16.395,-27.3433,34.6875,-0.089721,-9.50417,-3.27682,0.00526903,-0.00746335,0.00352388,-16.8287,26.8042,-5.63178,6
standing,89.0,34.0625,-8.53141,4.67379,0.319894,-0.00351654,-0.0179203,0.00713382,21.6994,-26.0716,1.27636,37.4375,0.920604,9.02696,-4.30711,0.0362541,-0.0101958,-0.0309159,-9.64342,-24.6736,6.399,34.8125,9.61748,-1.83364,-1.52693,-0.00635317,-0.0234276,-0.00768476,-19.1806,-16.7435,36.069,2
transient activities,100.3846153846154,34.375,-9.31032,2.26954,2.31768,-0.0982384,0.105154,0.222112,21.0665,-1.79792,-30.2801,38.1875,0.773497,9.90291,-2.91867,0.0675676,0.0230622,0.0215379,23.9138,-23.4318,4.70345,35.4375,9.65997,-1.07483,-1.49262,-0.02369,-0.0108518,0.0428028,-13.0971,6.93989,-2.7184,2
transient activities,93.0,34.75,-9.45936,-1.7249,1.02035,0.149256,0.100968,-0.0246349,38.3108,25.3877,-13.0568,38.1875,-0.147912,9.84651,-0.573201,0.0139012,-0.0628854,-0.0237079,14.5832,-31.1748,-10.4465,34.75,9.17714,-0.557109,-4.08628,0.0298231,0.0151175,-0.00565259,-38.1411,1.63811,49.7788,8
rope jumping,176.0,30.8125,-5.77136,-6.05404,8.05642,-1.56343,0.396413,-1.03183,39.7728,24.6822,-23.2916,34.125,0.617005,9.85086,5.98448,-0.376047,-0.120607,-0.632685,20.9997,-38.7879,13.4711,31.6875,17.5504,-8.01768,-8.19897,-2.76297,-0.152698,2.64798,-28.3401,30.5846,33.7527,8
vacuum cleaning,99.0,34.125,-5.73718,4.93387,-6.29745,-0.0405313,0.114628,-0.134465,38.695,-37.0359,12.9113,37.25,-1.45289,5.95763,-8.28967,-0.132084,0.00699191,0.12855,19.2462,-38.2282,33.3373,33.0625,9.61344,-1.34881,-0.449476,0.790378,-0.0476496,-0.554081,-41.7711,19.2078,8.89799,7
lying,62.0,33.375,5.003,-0.331883,8.23699,-0.0112545,-0.0212238,-0.0164706,13.8272,23.5742,-39.5051,35.5,0.423755,-1.23273,9.50189,0.0118438,0.0123638,-0.0163105,37.6988,16.0941,-27.1926,34.5625,-0.201294,-9.57971,-3.23891,0.045508,-0.00156144,0.00604834,-16.8185,26.5475,-5.20596,6
running,138.0,31.0,-16.5148,20.8677,0.953915,-1.79136,1.86434,5.57035,-15.032,-61.2118,-19.8601,34.125,2.44351,17.6104,-3.84277,0.206735,1.02677,0.0609981,-11.8746,-58.2108,-8.26691,33.3125,10.285655,9.05824,-3.7679875,-0.704477,0.2045425,-2.182725,-55.3464,-17.6139,31.4663,1
transient activities,116.0,30.625,1.08845,-9.76814,1.85977,0.0790451,-0.0789384,-0.373955,13.5179,28.2023,-10.0053,34.0,-0.269488,9.85398,0.470037,0.0343861,-0.00311464,0.0161056,9.25288,-27.5204,12.6204,31.8125,9.55157,-0.532196,-2.77055,0.0431903,0.00655783,-0.001759,-24.7704,13.6069,12.5101,8
walking,119.0,29.1875,-11.4711,3.83845,6.12876,-1.14251,-0.872363,1.12616,40.2044,26.9557,-0.0999524,36.8125,4.34041,10.3773,-3.43641,-0.235579,0.246087,0.374759,21.7151,-37.0949,16.0514,34.5,10.8571,7.8979,0.74076,0.74679,-1.42366,-2.9122,-44.1269,-9.15823,12.7122,3
transient activities,129.0,34.625,1.36035,9.31076,1.41461,-0.557346,0.208384,-0.13401,9.89505,-26.7117,-22.3944,38.3125,-0.675877,9.23861,-1.62626,-0.387972,0.354705,-0.589985,14.3353,-26.1633,15.4681,34.3125,9.42179,-0.727194,-2.03747,0.132418,-0.0435334,-0.973275,-27.859,-6.85874,5.5732,5
ironing,103.0,33.25,-3.99193,6.48836,7.77135,-0.857314,1.09189,1.17992,-3.66989,-69.5362,-75.3982,35.0,0.57218,9.29898,-3.23012,-0.278408,0.00964114,0.211469,-25.6414,-58.7207,-0.0186094,33.75,9.56947,-2.17255,-1.83404,0.0312816,0.122827,0.179692,-55.2234,-15.0317,44.5515,1
walking,112.0,33.5,-9.31132,2.8276,1.08419,1.02384,-1.13296,4.206,28.7507,-54.5414,-25.2659,37.25,-0.598969,5.17439,-1.22444,0.0785648,0.150232,-0.465868,-8.63321,-62.1788,-13.8617,34.875,9.3643,0.506432,-4.28391,-0.919637,0.421813,-0.241447,-55.8675,17.7633,35.7469,1
running,172.0,30.5625,-0.676883,34.9388,-2.70506,-1.0152,2.36681,2.46489,46.5833,-113.363,-24.9469,33.8125,4.97448,25.5838,-4.01644,0.0470012,0.489439,-0.563119,5.35836,-115.431,27.4649,33.125,-0.646312,21.8804,-10.3462,1.3346,-0.799616,-5.96831,-60.8118,7.35041,43.8457,1
sitting,85.0,34.9375,-0.286619,7.05643,6.67031,0.0302294,0.0364653,-0.0132309,4.72415,-21.8433,-21.2324,36.8125,0.450566,9.45435,2.96252,-0.125591,0.0502758,-0.00217918,3.9809,-21.8869,-8.59894,34.125,9.44391,-2.39612,-2.25843,0.00891369,0.0489597,0.0458127,-9.33644,-5.80562,21.0968,5
transient activities,93.0,34.625,-8.57285,3.90595,-0.717296,0.639481,0.447519,-0.0530029,16.7138,-1.10743,-13.5579,38.1875,-0.324896,8.92078,-3.9034,0.443707,0.226292,-0.287189,12.4851,-14.8995,5.39961,35.4375,10.9293,0.210931,-1.83489,-0.254668,0.424365,-1.55677,-7.31277,1.02302,-4.56172,2
vacuum cleaning,103.0,34.125,-5.08899,7.69625,-2.33285,-0.0629568,0.191189,-0.0737942,27.6139,-31.1131,5.81125,36.6875,5.13796,6.40544,-5.7323,-0.575941,-0.380772,-0.36226,-0.406469,-18.5228,12.2201,35.1875,9.82137,-0.726268,-2.45786,0.815672,0.922133,0.902943,-45.0453,11.6493,9.88807,6
ironing,82.5,34.0625,-7.72043,0.923877,5.96385,-0.136474,0.382936,-0.108673,19.5334,-6.51992,-48.7828,36.4375,-1.27173,9.77051,-1.21285,-0.211485,-0.0832267,0.0536615,5.51349,-35.9989,-10.3412,35.125,9.64462,-0.423904,-2.15284,-0.0403399,0.0322461,-0.00646435,-31.0638,13.885,43.9744,6
transient activities,127.0,32.375,2.64399,1.37788,10.6591,0.18711,5.64519,-2.06869,-18.44,43.0377,-46.513,35.625,-0.7503,14.3772,-4.62582,0.0357776,0.071051,-0.588151,30.5986,-46.2133,-7.28858,33.5,20.4557,-0.583679,-4.81943,0.132121,0.144157,-2.2508,-67.8293,2.67351,-13.8676,4
descending stairs,126.0,33.8125,0.0787597,8.44188,4.93918,-0.244561,0.0899096,0.157874,-17.1618,-21.6154,-34.5693,36.5625,-2.16881,9.39231,-1.88613,0.0390494,-0.090115,-0.0141585,-3.92632,-42.504,-7.51221,34.875,9.21359,-3.07749,-2.33374,-0.0581904,0.00256331,0.0420501,-40.1655,7.93048,19.7937,1
transient activities,134.0,30.1875,2.50432,8.60456,4.05126,0.0413528,-0.0337381,-0.0186943,-6.93887,-44.1502,-3.7983,33.5625,-0.142121,9.72617,-1.65689,-0.05546,0.0935728,-0.0239944,-11.5025,-37.5266,13.463,33.0,9.6511,-1.71869,-1.68166,0.0108064,0.00394193,0.0233389,-48.8633,-16.3517,10.3225,1
descending stairs,135.0,33.4375,-9.84679,1.74034,-2.15311,0.161584,-0.0540384,-0.10301,27.2919,-44.9936,7.47087,37.75,1.08199,9.52646,-2.75697,0.0814856,0.154836,-0.14074,-23.0719,-28.7631,-1.4159,32.25,9.1834,0.0114565,-3.97398,0.0340517,-0.0372346,-0.0226749,-1.75536,4.09144,56.4282,7
sitting,87.0,32.9375,-2.5521,6.20335,6.87018,0.00836311,0.0216109,0.00772952,8.82535,-20.5745,-23.3481,35.125,0.808903,9.45936,-1.67752,0.146364,-0.00256861,0.00294241,2.78332,-24.0479,3.53138,33.875,9.66438,1.87925,-0.584756,0.0188587,0.0411815,0.0363131,-7.13886,-6.55559,22.2401,4
ascending stairs,122.0,32.25,-11.1997,-0.935002,2.95448,-1.39287,0.244367,0.215546,39.1117,6.99701,-17.0832,36.6875,3.26105,14.2828,-5.52086,0.180108,0.152986,0.222978,-3.27787,-30.729,-14.4734,34.3125,6.82933,7.5058,-3.96745,-0.372646,-0.429406,-1.33586,-39.3348,8.40595,-1.86927,3
transient activities,92.0,31.125,3.01267,9.14382,1.17051,-0.0719847,-7.93957e-05,0.120457,8.82607,-28.3841,-10.7025,36.1875,0.712142,9.77351,0.178315,-0.0166002,0.038775,0.00839714,2.8518,-25.6034,8.61684,34.8125,9.72563,0.334351,-2.07953,0.0249448,-0.0331431,0.0222406,-29.7797,-5.72839,7.12528,6
vacuum cleaning,98.28571428571428,34.0625,-5.92744,11.1106,1.10693,0.615645,-0.172117,-0.516184,43.2238,-31.0839,-3.40679,36.75,1.16003,8.76527,-3.91471,-0.612081,-0.724891,-0.132855,-5.46099,-36.911,15.6734,35.1875,11.2995,-2.0552,1.07719,-1.02531,-0.281858,0.777312,-43.2486,3.50787,29.9022,6
Nordic walking,128.0,30.75,-8.44754,-13.6366,2.15334,-1.09024,-0.385547,-1.12275,24.1628,36.8112,-19.0028,33.875,0.35019,16.017,-1.04889,-0.244451,0.0967464,-0.10545,3.95668,-38.774,-14.8484,31.75,18.9856,-14.6411,-2.54766,-1.09502,0.735521,5.0247,-30.4428,-25.2109,25.3001,8
transient activities,110.0,30.0,-9.74324,2.93059,-0.500612,-1.44259,0.244924,0.356967,41.2595,-14.5982,-3.37155,35.1875,3.24953,8.21022,-1.47436,0.273489,1.21027,-0.203689,-19.7407,-36.8909,7.11369,33.0625,9.64672,-0.234382,-2.1154,0.503285,0.189622,0.0374046,-29.7509,-1.83775,17.191,4
transient activities,110.0,30.0625,-9.34784,2.30777,2.31699,0.00120934,0.0978617,0.017618,52.7077,-23.1635,-21.0591,35.1875,1.57583,9.77659,1.04581,0.0303954,0.018469,0.0391043,-7.49717,-37.8342,-16.0615,33.0625,9.37016,0.988376,-2.85903,0.0144899,0.0141671,0.00532648,-91.4584,-2.28616,43.7807,4
vacuum cleaning,105.0,33.6875,-10.0801,4.47702,-1.81945,0.888066,-0.16596,1.09192,34.0276,-31.4612,-2.72971,35.875,-2.3104,-3.24348,-10.676,-0.0149441,0.353763,-0.586461,0.402969,-3.75402,43.0218,34.4375,9.86468,1.24915,-2.62404,0.262457,-0.0189306,-0.193629,-49.6753,-0.161888,30.1675,4
transient activities,125.0,33.5,1.06117,9.24791,2.60344,-0.0242232,-0.0341763,-0.0229073,-19.9374,-48.9627,-27.8886,37.0625,-0.483264,9.57715,-1.58515,-0.0283394,0.012545,-0.0275099,0.653262,-56.0473,-9.54484,34.8125,9.77858,-0.289529,-0.107051,-0.00235973,-0.0316972,-0.0077518,-58.0959,11.0675,-2.92523,1
transient activities,95.0,34.5625,-11.6172,2.68396,-0.0275146,-1.09388,0.374415,1.7812,43.7819,7.06317,-34.8425,38.1875,1.37155,10.1994,-3.33473,0.0402012,0.193981,-0.343253,22.8923,-27.4455,44.03,35.4375,11.587,0.314702,-1.09558,0.0397052,0.537343,-1.7692,-21.869,-11.1086,-24.6242,2
running,174.0,28.125,10.8909,1.21877,0.16063,0.498708,-2.75012,-0.853284,36.1956,-32.9348,7.90463,33.1875,0.403203,0.611753,-1.69483,-0.825179,-1.36956,0.758729,-10.6629,-39.304,21.009,33.8125,8.82949,4.50691,3.751,1.36899,-2.00448,8.6795,-34.715,-20.093,29.5341,6
standing,83.0,35.125,-8.93192,3.66802,2.04922,1.00991,-0.321019,-0.167397,25.7892,-18.4991,-19.4581,37.0625,0.29151,9.53997,-1.14506,0.169288,-1.03414,-0.0225165,8.79888,-33.1551,-9.20646,34.3125,9.27578,-0.651272,-1.92367,-0.631239,-0.030139,0.503425,-27.475,20.3392,23.1302,5
running,164.0,30.8125,-7.68074,37.1007,-4.70314,-2.71782,2.10531,3.64165,39.9823,-26.6503,-27.7557,33.9375,0.0693557,25.7952,-14.0573,2.65564,1.0484,-1.50138,18.3974,-41.437,26.4143,33.1875,2.42463,14.3704,0.343988,-0.0539761,-0.154799,-4.59604,-50.0477,-32.5598,-12.4923,1
transient activities,106.0,32.875,0.0705449,0.875124,7.3508,-0.386217,0.0708462,-1.00607,16.928,-7.61085,-32.6294,36.6875,0.363739,9.47231,0.0180984,0.23583,-0.542963,-0.123591,17.5573,-16.0921,13.7413,34.9375,1.05127,-2.01945,-0.108636,-1.17776,-0.244165,1.24991,-1.9177,-31.8017,19.1674,6
transient activities,125.0,33.5625,-6.30597,4.92307,8.89659,-0.117792,-0.0810317,0.0654382,3.39078,-14.0692,-8.15364,36.75,2.52664,8.70198,-1.48905,-0.209498,0.140314,-0.00331549,-10.1167,-13.6329,-4.65476,35.125,9.12867,-0.146047,-3.24036,0.0753085,-0.00103317,0.570152,-28.8321,13.5918,25.9699,6
transient activities,121.0,32.125,-10.5259,6.74744,5.55579,1.66608,0.860535,-1.54621,30.731,-16.281,-19.6128,35.625,0.41312,9.55876,1.68371,0.00264767,-0.0344695,-0.0128882,6.15756,-25.5744,-12.229,33.5,8.96225,1.72307,-4.17982,0.0371666,-0.0187901,-0.0343098,5.61208,2.96262,16.6006,4
transient activities,116.0,28.4375,1.50718,10.9835,-2.32211,3.81499,-0.285987,0.2138,4.56032,-22.5595,8.56995,36.5625,-0.299872,10.0353,-0.576568,0.00623327,-0.129968,0.0732524,0.0825908,-21.9394,14.0275,34.375,9.75545,0.135514,-0.997486,0.0465877,0.032469,0.000856156,-27.2236,2.36367,30.8924,3
transient activities,109.0,34.0625,-0.816835,-6.32825,7.20786,0.0203508,0.0181058,-0.00559663,18.8308,5.19654,-28.3803,38.0,-0.480749,9.81226,-0.230631,0.00136073,0.0141855,-0.0249218,9.33264,-27.7928,23.6208,33.9375,6.73432,-7.36683,-0.557424,0.0230809,0.0134176,0.0376393,-16.5735,19.4455,-8.17533,8
ascending stairs,168.0,33.9375,-9.46471,-1.72624,0.866328,-0.10257,-0.116142,-0.183669,32.327,10.6789,-31.4592,38.0,-0.210216,9.92516,-0.109934,-0.0918536,0.0750449,-0.00649303,-0.297329,-27.0153,-9.86863,33.875,9.27331,-0.906046,-3.27275,-0.0841342,0.0187242,0.0240154,-24.5387,0.519517,31.5316,8
vacuum cleaning,112.0,33.6875,-12.2005,5.54296,-3.27884,-0.287959,-0.202328,-1.05789,51.8534,-0.77624,-14.7628,36.0,-1.52879,-2.57288,-11.361,-0.644671,-0.41797,0.302198,34.9012,9.93759,38.672,34.4375,10.4959,5.36412,-4.8813,-2.33587,-0.469751,0.142697,-24.5774,-14.4819,-35.3959,4
Nordic walking,135.0,29.5625,-3.40691,4.5363,2.16754,-0.305846,-0.0607793,0.580871,10.0484,-19.1607,-38.1884,34.875,0.402241,7.02628,0.259072,0.379167,0.137019,-0.123774,21.2589,-30.0191,5.24488,33.0,9.58121,0.714022,-1.9676,-0.4195,-0.043531,-0.924313,-39.3355,7.98791,-0.0158479,4
walking,98.0,32.3125,-8.2685,0.893879,2.14549,-0.515589,-0.0323317,-0.245685,15.8166,-34.9775,-33.511,36.6875,1.38554,13.0599,2.03844,-0.383491,0.0908025,-0.178318,-2.25999,-38.0303,-13.3448,35.0,16.9907,-1.59288,-4.1155,-1.69473,0.181068,-3.03355,-42.4424,-0.405986,26.0801,6
descending stairs,116.0,32.6875,-10.237,-0.500442,9.93365,0.708096,0.0772501,-0.389107,42.902,-23.8913,-36.1265,35.5625,0.243424,13.8452,0.698682,0.0507271,-0.0727536,0.0500281,-28.1817,-41.9891,0.597705,33.5,10.376,4.1015,-3.60124,0.337775,0.167989,-0.381523,-63.516,-8.90145,19.4915,4
standing,88.0,34.625,-8.92475,-2.58888,2.45531,-0.0201225,-0.0116633,0.00210534,45.0627,-1.03753,-19.603,37.625,0.573011,9.62648,0.640924,0.0206499,0.0227563,-0.00430951,-7.51077,-37.3346,-0.130924,34.4375,9.09089,-0.629359,-4.47262,0.043194,-0.0158725,-0.0445072,-37.0831,-2.00383,11.4921,8
Nordic walking,113.0,30.3125,-3.14385,6.85387,2.74097,-0.444525,0.193261,-1.52764,26.0233,-41.5871,-9.86985,35.75,-1.20593,7.70697,-0.0820425,0.505736,0.38395,-0.222696,-10.9158,-38.3579,-11.2881,34.5625,13.2332,-0.635545,-2.23049,3.55184,-0.625075,5.82451,-41.9282,13.0958,29.1865,6
cycling,124.0,31.875,-1.68993,2.80471,5.20111,-0.13889,0.241168,-0.242799,0.798567,-38.1513,-48.2621,36.5,0.626406,6.43643,-8.87309,-0.0971823,-0.181147,-0.302026,-10.3302,-51.9456,34.0544,33.9375,13.8793,2.52443,-3.78706,-0.406876,0.0662989,-0.731829,-66.4969,4.76831,28.8874,1
transient activities,116.0,29.0,-9.22725,2.00573,2.58923,-0.0233651,-0.0480478,0.468823,40.6889,-18.3487,-16.4486,32.625,2.53377,7.92471,-5.04872,0.0151002,-0.082921,-0.00846652,-4.51661,-36.4345,15.1639,32.0,9.66298,-1.3419,-1.33657,-0.0297295,0.0187464,-0.0168036,-35.1213,10.1264,23.8606,2
transient activities,104.0,33.0,-8.64582,3.19738,0.592572,-1.10233,0.218036,0.586989,34.7629,-44.6599,-16.8958,37.4375,1.06117,8.4217,-4.65109,-0.138202,-0.0408169,0.1042,-7.70389,-48.9055,-2.4299,35.0625,9.86857,-0.549917,-0.837714,-0.372552,0.333879,-0.391289,-48.355,32.5226,34.2338,2
transient activities,76.0,30.3125,0.281478,7.10001,7.79481,-0.202262,-0.207765,0.282513,-4.08925,-18.2387,-34.5669,32.125,-0.239005,9.71036,1.51652,0.00873465,-0.0195524,0.0155388,0.79127,-27.653,-11.3431,30.25,9.87552,0.360687,-0.766114,0.0368884,-0.00379959,-0.00344819,-11.4469,-7.73451,9.73701,3
standing,87.0,32.375,6.64228,0.0562166,6.41284,-0.066566,0.796737,0.771277,-24.504,11.3527,-18.0436,35.5,0.695537,9.41094,2.2314,0.0821993,-0.0259532,0.0499614,-6.09392,-25.6422,-10.5868,33.3125,9.75587,-0.206846,-0.918178,0.0376404,0.0399952,0.0623468,-6.68823,-3.77824,23.356,3
cycling,116.0,30.75,-2.99762,6.4373,11.4042,-0.0338271,-0.0201837,-0.234823,33.5867,7.12936,-42.5949,34.875,-0.000172049,7.18455,-4.35652,-0.0419624,-0.0981215,-0.0986613,28.4246,-34.2967,19.7015,31.9375,12.7228,-15.7659,-4.14849,-1.01101,-0.256451,-1.00113,-29.268,25.6064,32.6205,8
transient activities,95.0,34.75,-9.64296,-1.7221,1.17154,0.29166,0.237376,0.0986122,39.0593,24.8517,-12.5301,38.1875,0.541782,9.92045,-0.444784,-0.0200706,-0.197352,0.00820636,14.1953,-31.677,-9.88232,34.75,9.18489,-1.39595,-3.65651,-0.13191,0.151011,0.00228582,-38.8195,2.95604,48.6402,8
standing,82.0,34.5625,-9.15658,-2.36118,2.25863,0.121743,0.0560397,-0.0289514,43.2305,-1.9341,-21.9561,37.5625,0.132246,9.85746,1.17428,0.143508,-0.0617839,-0.0241542,-5.32912,-37.0283,0.0235215,34.3125,9.09066,-0.249031,-4.55216,-0.0309516,-0.0476051,0.00383984,-36.9324,-3.17047,11.3521,8
Nordic walking,112.0,30.625,0.193716,-13.6015,5.16921,-0.201224,0.548898,0.485771,1.73349,60.087,-34.7152,33.9375,-1.39995,12.8736,-4.55526,0.727102,-1.15516,-0.159853,7.25543,-62.66,18.0232,31.8125,11.0307,-5.03426,-1.22245,0.310896,0.104651,1.87626,-50.2665,17.7405,22.4857,8
sitting,88.0,32.0625,0.49257,8.55182,4.86803,0.199125,0.132265,-0.193435,-41.2066,-25.6407,-36.189,33.8125,0.638946,9.62391,0.293638,-0.103613,0.0833486,-0.0811972,11.649,-62.719,-41.0121,32.5,-1.00952,-0.285069,-11.0228,-0.146516,-0.21733,-0.064226,-14.6742,39.1669,67.9446,1
standing,94.0,34.0,-9.31024,2.41128,1.20107,-0.0113025,0.00449253,0.00608446,30.7099,-20.9029,-18.2135,37.4375,0.834507,9.33477,-3.38037,0.041768,0.00146079,-0.0379576,-1.54286,-31.4975,2.0999,34.75,9.73383,-1.26515,-1.49068,0.000719869,0.0126818,-0.0254455,-19.9645,0.463412,38.487,2
lying,78.0,33.625,6.87564,2.89655,6.02188,0.00250721,0.0314098,0.00295578,6.94453,-0.574385,-44.8028,36.8125,1.32868,3.69182,8.72786,-0.03684,0.0393935,-0.0541187,30.3075,-2.67999,-27.2869,34.4375,-0.475291,-9.34639,-3.70624,0.00214877,-0.0244811,-0.00215809,-13.234,23.3033,-5.01831,2
sitting,79.0,33.5625,-2.21567,2.63981,7.50304,-0.443879,0.0416856,-0.00588489,9.72818,-10.2026,-29.3183,35.9375,1.38575,7.10289,6.47199,0.0450187,-0.00616878,-0.0617028,3.62982,-15.1589,-16.9588,34.75,9.43574,-1.21492,-2.7675,0.0107945,0.0314015,0.00862933,-18.4298,-3.06238,11.7007,6
standing,86.0,33.5625,-8.58518,2.19981,3.63735,-0.0705724,-0.0381217,0.044879,24.9938,-23.669,-19.9501,35.9375,-0.34353,9.81708,0.546258,-0.0176342,0.162611,0.0414767,-3.50486,-25.8716,-3.83425,34.75,9.56942,0.56536,-2.3527,-0.254784,-0.206133,0.0781747,-6.05702,-2.19117,36.1384,6
transient activities,82.0,33.125,1.461,8.75816,3.34235,-0.0255747,0.269075,-0.123434,8.70315,-32.4784,-19.0763,38.3125,0.773374,9.57296,-1.60109,0.157775,0.421122,-0.507442,-0.0278019,-34.7864,12.1741,32.3125,9.22827,-0.675428,-3.58336,0.133819,-0.0263744,-0.110537,-49.7872,21.1697,14.6826,7
transient activities,120.0,28.875,-5.14844,8.40212,0.165553,0.0792213,0.103287,-0.0171187,29.8767,-30.5123,-28.0548,34.1875,0.0521867,9.7063,1.05716,0.0340723,-0.00959874,0.012915,20.966,-38.2396,-16.1431,32.75,9.55756,2.71495,-0.552448,0.00745461,0.0606869,0.00101779,-37.1337,-11.5963,-11.4738,4
standing,94.0,35.0625,-7.16901,3.91246,-11.4343,0.780282,-0.192238,-0.802129,30.5695,-14.2961,-33.2726,37.0,2.01216,10.1668,-2.27755,-0.0197953,-0.40735,0.3936,-6.79838,-35.6865,1.97974,34.25,9.61705,-1.0623,-2.99813,0.0754807,-0.214036,0.0655782,-34.5395,0.939505,4.83149,5
Nordic walking,144.0,32.1875,-3.30234,3.47279,2.1342,-1.13627,-1.20223,3.92821,18.1491,-64.0731,-6.26775,36.875,0.347934,6.37425,-1.52096,0.44286,0.176022,-0.484083,-26.6759,-55.9818,21.9108,34.0625,9.55886,-0.192085,-2.57964,-0.57057,0.202908,-0.242581,-53.2211,-26.3619,36.6162,1
sitting,79.0,32.0625,-1.52031,3.51919,8.85754,-0.0122618,-0.0267747,-0.0049646,4.75365,-10.2217,-29.374,35.0625,0.4758,9.33842,2.53743,-0.0119549,0.00192232,-0.0275728,4.0717,-18.5256,-7.2359,33.0,9.71106,0.686802,1.27542,0.0417904,-0.0111805,0.00594835,-14.338,-4.86863,17.7131,3
cycling,126.0,29.125,-0.369911,5.00998,6.8684,0.306305,0.226385,-0.2149,40.1145,-6.19257,-36.795,33.4375,-0.135785,1.57571,-9.72296,-0.502019,-0.0823076,0.266123,15.9884,1.65772,39.3066,32.4375,3.52477,2.834261,1.082886,-0.3090175,-0.33218,2.69884,-32.6826,-14.4426,-2.105505,2
standing,103.0,33.0625,-7.33846,5.56074,2.95191,0.117054,-0.0969441,-0.0540055,56.7627,-44.1285,11.7901,34.6875,0.97044,9.58259,-0.0874315,-0.0222695,-0.125974,0.00593228,-33.1584,-55.6572,22.3032,33.5,9.56678,-2.48667,-0.558662,-0.0244183,-0.00390022,0.00899333,-109.31,-29.4055,24.1695,1
vacuum cleaning,134.0,33.625,-3.76619,8.33968,-1.35303,1.01996,-0.936745,-0.661762,26.5546,-45.5599,13.9723,35.6875,1.83159,7.02007,-5.52315,1.43935,-2.447,1.13688,-8.97885,-33.7272,40.8413,34.625,8.64259,2.05174,-2.33284,-0.805106,0.0423894,-0.0209858,-40.6297,-15.9325,31.9209,1
transient activities,118.8181818181818,30.0625,-7.3854,3.38047,0.957221,-0.473325,-0.619953,-1.642,29.1399,-13.6037,-3.30362,34.9375,0.759964,8.24409,-3.22329,0.265487,0.0537782,-0.219362,12.8794,-21.2522,14.3452,33.9375,10.9492,-0.832294,0.371398,-0.112525,0.0165541,0.242124,-24.1363,8.20076,6.54497,2
standing,88.0,34.0625,-8.15487,5.04925,0.208805,-0.0610631,0.0517421,-0.0674083,22.6451,-25.5063,3.81766,37.4375,1.20775,9.36942,-3.64477,0.0965572,0.104355,-0.119628,-10.3072,-24.8602,4.79517,34.75,9.62527,-1.60776,-1.29672,0.058019,-0.062219,-0.000789485,-19.1727,-17.5111,35.6895,2
vacuum cleaning,132.0,33.625,-3.94771,7.36809,0.14854,0.24476,1.25613,0.974005,41.759,-37.9503,-3.24764,35.625,1.36338,4.2081,-9.51075,0.987337,0.0891704,0.357836,3.69925,-34.6901,50.9611,34.5625,10.176,1.19506,-0.88398,-0.708964,0.692526,0.639187,-39.8364,17.0262,6.76751,1
transient activities,95.0,29.8125,-6.29224,-0.518548,7.14473,0.00274772,0.0327618,-0.00869581,31.1324,-5.51015,-25.7156,35.375,-0.323099,6.56182,-7.49675,-0.0507687,0.00534851,-0.00257816,0.909927,-7.88778,31.7685,34.3125,9.82819,0.363815,-1.11393,0.0461615,-0.0326562,-0.010784,-28.8271,-4.94899,25.5659,6
lying,88.0,31.5625,7.17291,1.41593,6.18528,0.0100967,0.00410869,-0.0212232,-2.08513,23.2602,-55.0895,33.375,0.659062,-0.0277611,9.6184,-0.0190971,-0.0489247,-0.0275881,46.1104,12.7197,-46.0259,32.0,0.00246297,-7.42421,-6.99338,0.0110338,-0.0408897,0.0118907,-19.9074,45.4494,-1.63304,1
lying,80.0,33.6875,6.88769,2.33149,6.48582,-0.0159911,0.0106146,-0.0113267,7.95346,1.983,-45.1339,36.9375,1.25369,3.72997,8.7651,-0.0247197,-0.00667883,-0.0117115,31.0067,-3.26551,-26.9094,34.5625,-0.396941,-9.30986,-3.58989,-0.0453043,0.033634,0.0281961,-12.7852,23.8261,-4.02618,2
walking,119.0,33.25,-10.0813,1.62773,2.0004,-1.52272,-0.973786,3.84781,40.4681,17.7469,-12.9324,37.25,-0.384649,6.22409,-1.80479,0.236499,-0.03453,-0.612772,5.82394,-10.5316,28.5942,34.75,9.47814,1.22777,-4.3644,-0.607051,0.342819,-0.272874,-47.2167,-19.7285,-14.2352,1
transient activities,183.0,30.8125,-6.81461,-6.31824,3.07681,-0.219779,0.0330123,0.351055,24.4102,36.5401,-33.306,34.1875,-0.0452761,9.88988,0.319099,0.132116,0.322062,0.314955,22.5367,-42.6851,-13.5689,31.75,9.65083,-1.97411,-2.95353,0.427984,0.29452,0.800721,-37.64,4.03624,41.977,8
transient activities,85.0,35.4375,-9.09818,0.70159,1.13304,-0.306783,0.0848436,0.825376,39.7322,-15.4018,-27.5103,37.625,1.54718,9.45154,-2.47726,0.247668,1.40552,-0.695448,11.1468,-38.5327,-6.05749,34.5,9.41283,-1.1702,-3.5784,0.305635,-0.0943481,-0.328926,-37.4014,3.52838,4.81842,5
running,143.0,28.3125,1.78396,14.2329,0.634597,-1.95168,1.31106,2.20467,26.9112,-40.8921,-13.1567,33.4375,8.27051,11.544,-7.20237,1.41388,0.542786,0.143771,-10.4129,-38.6354,-10.296,33.9375,-23.9002,39.6447,-1.24051,-0.255057,3.06972,-6.271,-37.971,23.4463,26.0681,6
standing,92.0,35.125,-9.98386,3.03391,2.3435,0.0965785,-0.0890482,0.931987,36.2856,-0.439204,-11.19,37.0,0.875564,9.87965,-0.748372,-0.0392607,0.32611,0.0596783,-6.82169,-34.2753,9.86781,34.25,9.7316,-0.417227,-3.03955,0.902282,-0.711629,-0.142512,-10.072,-13.6588,8.76396,5
descending stairs,139.0,32.0625,-2.90672,1.60146,9.57451,0.0648161,0.536002,-0.325043,39.0667,4.84491,-52.6346,36.75,0.759823,3.58659,-1.50443,-0.0296798,1.07634,0.300934,22.2081,-40.7175,-5.02943,34.375,9.11719,21.7605,-7.77564,-0.186841,-0.22136,-0.116361,-48.2669,-3.56194,9.33999,3
Nordic walking,111.0,30.0625,-4.84144,5.96736,-0.283483,-0.500012,-0.165262,1.93532,37.2122,-37.9694,-16.3448,35.5625,2.12087,10.643,1.36264,-0.0466642,-0.372743,0.0377895,8.22551,-43.6187,27.3691,34.375,11.8081,0.297644,-3.83307,-0.626708,-0.0890104,-1.35618,-34.0947,-22.1054,12.5187,6
sitting,90.0,32.9375,-2.54863,6.5072,6.90769,0.027792,0.0108932,0.000952494,8.44672,-20.3059,-23.0865,35.125,0.841051,9.79657,-1.91036,0.0181197,-0.0017182,-0.00967445,3.43795,-24.4587,3.25625,33.875,9.62125,1.84312,-0.777922,0.0167136,0.00139203,0.0319956,-6.62013,-6.57936,22.9511,4
standing,98.0,32.875,-8.32014,3.40981,3.40631,0.0337356,0.0118631,0.0319785,62.1898,-38.8518,8.54445,34.5,0.434073,9.68777,-1.49144,-0.0281118,0.0269816,-0.0485449,-36.0638,-53.6568,21.8941,33.25,9.24136,-2.40112,-1.48868,0.0686263,0.0364386,-0.0801857,-77.4243,-16.5855,54.495,1
transient activities,97.0,31.3125,0.87628,11.8453,4.36233,0.799044,-0.842145,-0.39838,15.57,-26.887,-17.1556,36.25,0.832902,10.038,0.373248,0.0157264,0.04893,0.0325084,2.60179,-27.0137,9.46913,34.8125,9.6221,-0.313937,-1.65209,-0.0283623,-0.0439597,-0.0244777,-28.0106,-0.28855,4.43039,6
transient activities,138.0,31.5,-6.32021,1.84085,3.67249,0.928172,0.372683,-0.460256,51.9699,11.1069,-39.2904,36.75,0.347062,5.32915,-0.162341,0.208702,-0.477483,-0.017501,25.1951,-39.0545,-2.28515,34.4375,-0.537708,-2.11858,-0.703159,1.18515,0.0671496,1.76005,-41.946,-37.4601,11.2785,3
transient activities,128.0,30.1875,3.42092,11.2413,2.70904,1.12198,0.863432,-1.15799,-42.6782,-115.205,4.75627,33.625,3.18079,7.42453,-6.31317,0.385671,-0.0399358,0.147886,-28.5716,-96.5951,46.588,33.0625,9.94772,1.55049,-2.39352,0.222697,-0.0436588,-1.26923,-73.5182,-36.0306,46.0863,1
transient activities,131.0,32.0625,1.72304,8.65164,4.38579,0.067712,0.011566,-0.000175606,23.0402,-56.0163,-37.1365,36.75,-0.488584,9.72647,-1.77933,0.0138099,-0.00644674,-0.0181076,23.7093,-44.193,27.3492,33.9375,9.4361,-2.63269,-1.17653,-0.0070721,0.00672122,-0.00267748,-69.1756,-10.6407,-25.5939,1
rope jumping,158.0,28.4375,-5.29355,19.8154,3.43479,-1.29498,4.54321,1.39675,11.7803,-42.382,-5.72956,32.125,1.43447,22.2222,-29.4319,7.69214,-1.08763,-1.98047,-18.7157,-27.9917,23.5404,30.25,-8.93493,2.04542,-2.04998,0.768064,-0.557509,-3.702,-36.0461,-5.9726,34.0939,2
cycling,114.0,29.6875,-4.7278,3.76261,7.80801,0.115268,0.280522,-0.0719251,5.19799,-20.9045,-38.4054,34.5625,-1.1534,0.435091,-11.8286,-0.131204,-0.167473,0.156107,5.28903,-26.5617,23.9065,33.375,13.495,-1.10416,-0.835674,-0.645988,-0.0683857,-0.610046,-28.8584,25.8186,21.8725,2
transient activities,78.0,33.4375,-10.1164,4.22356,3.72305,1.21294,-1.1705,-2.44912,33.8035,-2.53839,-8.15394,36.75,-0.4458,5.99582,-7.72946,0.129462,-0.285183,-0.0434566,15.879,-7.13946,21.293,35.125,9.83787,-0.731087,-1.87882,0.189306,0.11263,-0.145324,-23.9172,-5.24744,7.42901,6
transient activities,85.0,29.8125,-6.4713,-0.249502,7.37206,-0.0257515,0.00955744,0.016922,31.5105,-5.90263,-25.714,35.3125,-0.405593,6.78642,-7.7313,0.0533715,0.00948287,-0.0294726,0.917785,-8.40394,31.7714,34.3125,9.71964,0.0212028,-0.919964,-0.0471462,0.00427195,0.0129488,-28.9478,-5.20004,25.7076,6
transient activities,104.0,32.3125,1.19904,-8.77526,2.66631,-0.262099,-0.220404,-0.342868,-9.34058,33.2634,-19.0447,36.9375,1.61377,9.86045,2.32402,-0.289325,-0.184205,-0.362961,8.35174,-27.196,-18.8317,32.4375,9.82597,-5.54627,-2.69803,2.90392,0.601086,0.116115,-22.2014,-15.9275,38.3668,8
transient activities,81.0,29.5625,-9.40259,2.62512,-0.417505,0.0383005,-0.0216083,-0.00163066,31.1898,-28.3265,4.60602,31.75,2.19488,9.65513,0.0893993,0.0424486,-0.0192631,-0.0283147,-13.4336,-25.4975,-11.0967,29.5,9.30299,-0.0674406,-3.70214,0.0248545,-0.0081187,0.00750797,-9.61328,-21.6812,46.5022,7
sitting,75.0,33.5,0.253062,9.33591,3.24533,0.013756,0.00970986,-0.00261141,3.83997,-23.7784,-16.3633,35.875,0.538925,9.8533,0.755732,-0.00267901,0.0323746,0.0029309,5.1155,-24.8995,-4.34381,34.75,9.47254,-0.910765,-2.84619,0.0108808,-0.0196915,0.0176033,-18.4231,-3.44937,11.5594,6
vacuum cleaning,107.0,34.0,-5.76819,-2.41016,-0.230616,-2.55697,0.0630359,-0.512427,13.3638,-16.5668,21.8934,36.75,0.978856,8.42931,-3.56842,-0.178198,-0.350767,0.102204,-21.6334,-20.053,4.74885,35.1875,9.64407,1.39556,-6.44758,1.61893,-0.178141,4.18591,-14.0,-14.2578,44.7762,6
standing,78.0,34.5,-9.2746,-0.874676,2.90613,-0.140279,-0.0989853,-0.144334,45.7295,-2.93617,-21.955,37.5625,-0.156587,9.7404,0.433731,-0.0183717,0.2705,-0.0829251,-3.87423,-37.0878,5.53315,34.25,6.62635,-7.16656,-1.75605,-0.191415,0.130195,-0.0146085,-20.6605,27.5819,18.6071,8
Nordic walking,104.0,34.9375,-1.12493,9.25649,1.64697,0.135029,-1.25601,0.0851235,-11.1736,-52.4922,12.8435,38.5,1.46523,9.45048,-2.67234,0.0376469,-0.0557889,0.0941575,-22.6663,-55.8615,-0.836203,34.5,9.35679,-1.36536,-2.88315,-0.00126423,0.000942246,0.00752421,-39.6933,33.5806,28.1778,5
descending stairs,124.1818181818182,34.4375,-14.1011,3.18956,3.39744,-0.678813,-0.158408,-0.225148,20.8001,-1.11501,-30.7081,38.0,3.21025,15.4151,0.39884,0.349324,-0.0129955,0.0110948,22.4734,-25.4131,-2.38706,33.625,9.3812,5.86322,-4.70288,0.427367,-0.838446,-1.77084,-9.77501,-8.68147,-1.02718,5
transient activities,84.0,33.0625,-8.83119,3.06779,2.89948,0.00415598,0.0279724,-0.0313932,38.6614,-14.7633,-23.7934,36.5,-0.418814,9.74227,0.583858,0.0571493,-0.00544944,-0.0217705,16.8618,-29.0554,-14.4107,33.9375,9.70371,0.129242,-0.187596,-0.0701775,0.00346134,0.0120929,-50.5815,28.4109,0.416554,3
lying,104.0,30.625,6.0158,4.98858,5.84799,0.0319391,-0.0245372,-0.0126711,-13.3478,15.3609,-58.5175,32.4375,1.12162,1.92879,9.62042,0.0107163,0.00335889,-0.0169918,39.6072,12.0061,-54.2157,31.0,-0.656675,-7.80445,-6.41894,0.0185617,0.00977736,-0.0104587,-14.7686,44.005,-6.27029,1
lying,70.0,33.3125,5.04052,-0.370114,8.23768,-0.0729521,0.039721,-0.011131,13.6921,24.45,-39.6413,35.4375,0.463611,-1.00667,9.5406,0.0361016,0.0352422,-0.0454856,37.1902,15.9842,-27.4775,34.5,-0.0555961,-9.50344,-3.39224,0.0211905,-0.0414428,-0.00463026,-17.3287,26.8321,-4.64075,6
walking,124.0,32.9375,-8.13219,3.77706,2.21478,3.1743,0.0434638,-2.32164,47.6128,5.87191,-10.249,37.125,0.31573,4.71996,-1.16767,0.20259,0.00901704,0.453386,-6.83955,-52.7639,25.2806,34.5,6.31474,-2.10359,-3.1413,1.25087,-1.88534,4.03265,-26.8461,-19.5266,-17.1228,1
transient activities,88.0,33.0625,-5.84005,7.67517,-1.11244,0.131231,-0.0450393,0.0589897,37.2274,-31.5054,1.06981,38.1875,0.822253,9.60416,-2.52961,-0.00246722,-0.111645,0.0604015,2.11842,-36.2884,16.1456,32.3125,9.34078,0.426556,-3.78199,0.0207957,-0.159293,-0.00809972,-56.6434,24.4055,35.5041,7
ironing,96.0,35.375,-1.69923,7.81985,1.72019,-0.375422,0.160502,0.313029,15.1165,-48.9312,13.5561,37.5,1.16457,9.91273,-1.28534,-0.0386021,0.105092,-0.0588542,-10.0175,-37.3667,-4.23731,34.4375,9.46922,-0.491504,-3.04178,0.168655,-0.0320963,0.207747,-31.4953,15.9652,43.5449,5
ironing,89.0,34.75,-5.23483,-5.37455,8.13913,0.0706421,0.280035,0.958604,17.1529,-16.4423,-45.1746,38.0625,0.248991,9.45507,-2.57823,0.177511,-0.291688,0.373933,-16.9899,-38.1514,5.44793,34.75,9.3488,0.272112,-3.47224,-0.115776,0.20315,-0.00663562,-42.5891,-15.5527,-4.68044,8
lying,78.0,33.8125,6.7392,2.52269,6.52143,-0.0332816,-0.0176173,0.0368364,7.74637,1.98457,-44.3215,37.0625,1.17717,3.61725,8.76408,-0.0113649,0.0034717,-0.0583215,31.1266,-3.3779,-27.2755,34.625,-0.404334,-9.4598,-3.82058,0.0157774,-0.0242011,-0.00605829,-12.5615,23.9269,-3.90315,2
transient activities,156.5,32.5625,-4.80967,6.3333,-5.98037,0.00241358,-0.0532694,0.0252889,12.7703,-48.0534,25.2352,35.375,0.649985,9.47589,0.681529,0.0805321,-0.0146109,-0.0136739,-10.0277,-47.2988,-2.20693,33.375,9.5014,0.194263,-3.35442,-0.0172184,0.00803235,0.00912418,-63.2386,14.9754,44.1436,4
vacuum cleaning,132.0,33.5625,-20.9677,-0.771427,-4.27407,2.19253,-0.655123,0.328594,51.2885,-47.5913,-32.74,35.5625,-1.02782,0.362019,-11.4389,-0.345789,-0.181206,0.751596,29.4405,-17.6942,65.7163,34.5,8.43623,2.76562,3.41046,-0.138278,-0.165684,0.142667,-55.7333,-22.0569,-32.5097,1
walking,121.0,31.9375,-8.19375,2.48372,1.79486,0.243136,-0.278248,3.50143,3.96958,-36.6183,-12.5217,36.5,1.47448,10.4887,-5.03753,0.669738,-0.311662,0.222254,-0.626585,-38.2382,2.71759,34.5625,12.5891,0.376123,-0.0823594,-0.783097,0.442586,-1.82976,-32.1432,19.7697,20.8446,2
rope jumping,168.0,28.4375,2.81515,16.7579,8.06959,-0.115721,1.86377,-0.219361,10.6592,-42.5318,-5.94979,32.125,2.56191,14.0938,-5.95885,0.0469374,0.834314,-0.343035,-19.548,-29.7326,21.4416,30.3125,14.2477,3.49108,-1.55109,-0.326466,0.402558,2.05619,-36.7068,-7.15468,33.4678,2
transient activities,77.0,31.625,-9.1736,2.11326,1.93538,0.433332,-0.149828,0.0386625,29.8489,-9.67028,-24.6791,34.375,-1.9662,9.48721,1.09875,0.0534844,-0.100025,0.0247403,10.6623,-24.5245,-10.6988,32.375,9.8458,0.358675,-0.49628,-0.0518325,0.0435021,0.0180308,-6.74946,2.6836,27.1387,3
lying,61.0,30.75,0.441248,4.52569,8.57563,-0.0325551,0.0299617,-0.0267948,-5.89807,17.0617,-32.864,33.4375,0.691517,2.15342,9.22469,-0.0183288,0.00921512,-0.0245009,35.4079,3.41675,-32.6357,30.5625,-0.877303,-8.53736,-4.83448,0.013252,0.00131703,0.0146556,-12.5613,29.4196,-7.03813,7
transient activities,116.0,33.375,-9.54964,2.01158,-1.26436,0.0172722,-0.00524669,-0.00137712,27.6509,-45.1457,-5.52091,37.6875,1.38455,9.64662,-1.55153,-0.00899571,-0.0311114,0.0173799,-19.944,-28.9971,-11.2631,32.1875,9.22653,0.0475818,-3.78081,0.0240152,0.0201742,-0.00798367,-2.70913,6.58306,55.7128,7
transient activities,120.0,31.25,-8.161,4.36601,0.172531,-0.521492,0.399863,0.592089,31.6939,-29.0213,-0.605822,36.875,0.0914684,9.99874,-0.220871,0.058347,1.17532,-0.166121,-10.3248,-38.4454,11.8861,34.5625,10.3586,1.79294,0.156101,0.187299,0.663866,-0.196089,-19.1093,2.22592,36.3946,3
walking,108.0,34.8125,-6.50526,2.65693,1.43469,-1.51964,-0.497945,2.76607,40.999,5.38421,-19.6337,38.375,1.53513,5.62798,0.0518159,0.155449,-0.238384,-0.355472,5.4843,-23.0107,26.105,34.4375,8.51253,0.128988,-3.90441,-0.242753,-0.201196,-0.51649,-30.5096,-19.9513,17.7766,5
descending stairs,107.0,34.875,0.0869519,4.23033,4.95351,-1.5296,-0.492452,1.0498,3.10262,-25.3815,-59.3962,37.8125,0.376029,11.0932,0.284099,0.0379814,-1.28175,0.173797,-14.7935,-52.9403,10.9054,33.9375,3.11687,-3.8432,3.1268,-4.3854,-1.62726,1.01029,-26.1212,-19.537,57.7882,5
transient activities,118.0,28.1875,-9.28117,7.29554,4.30251,-0.575566,0.286277,-4.61722,39.5225,-19.7033,-24.3194,31.8125,-2.22163,7.57406,-3.50745,-0.161159,-1.17105,0.39771,5.60543,-27.5493,32.9808,30.125,6.97231,-3.32474,1.7739,1.09307,-2.20973,2.88855,-33.4169,-24.0424,8.38119,2
lying,81.0,31.875,2.72462,9.39651,3.70551,0.948058,0.727596,-0.131011,28.5051,-38.3262,-41.1746,33.6875,-0.95379,9.50909,-0.741588,0.505293,1.01969,-0.409886,50.9273,-39.0591,2.02778,32.3125,2.92013,-5.20939,-6.12824,0.625551,-0.33559,-1.58915,-45.4453,26.1424,8.14841,1
Nordic walking,139.0,32.125,-0.795015,7.85125,6.00573,0.600704,0.198588,0.431457,12.8505,-20.446,-57.8147,36.8125,-1.45567,9.53807,-2.26089,-0.0182652,-0.00971877,-0.0212566,29.1502,-48.4262,-18.2955,34.0,9.73675,0.140975,-1.65373,-0.031578,0.06825,-0.0281603,-55.1578,31.2678,22.022,1
ironing,83.0,33.5625,-1.39003,11.0763,1.25199,0.652392,0.0849762,0.313152,-7.77707,-40.3945,3.05212,36.375,0.417434,9.29894,-3.31037,0.145838,0.111445,0.10462,-11.09,-35.918,4.77128,32.6875,9.27768,-1.97206,-2.91878,0.0843671,-0.0531576,-0.120371,-33.2451,-3.25593,44.6957,7
walking,113.0,30.5,-9.84249,1.58137,1.27287,0.584851,-0.0260015,0.394754,40.6451,-11.3532,-24.3871,35.375,0.916188,14.1499,1.52302,-0.0420936,0.023877,-0.437944,-1.44892,-36.4206,21.7617,33.25,15.4755,-0.420675,-2.36319,-0.453115,0.391633,-2.62105,-27.5525,-30.8059,10.5662,4
transient activities,116.0,33.625,-6.71171,5.53351,4.69333,0.350846,-0.159644,-0.0212235,22.2914,-34.5599,-5.96795,35.8125,-0.572018,9.89311,0.541871,0.028263,-0.0850226,0.0814292,-16.2245,-30.9509,-0.791815,34.375,9.4042,0.76097,-2.93445,-0.026089,-0.00156511,-0.00516846,-16.1392,-35.0492,30.7514,4
transient activities,95.0,34.375,-9.61239,-1.79995,0.979827,-0.016069,-0.0147518,0.00874336,41.3032,-17.5792,-3.74726,38.125,0.270205,9.84494,-0.604342,-0.0221343,0.0182359,-0.0249259,-12.7568,-32.1369,24.1968,34.3125,9.70687,-0.306618,-2.616,-0.0178446,0.0167773,-0.00970117,-29.4431,5.14493,-10.8988,8
vacuum cleaning,93.0,34.4375,-3.15026,7.63902,5.66327,-0.262822,-0.157398,0.0577364,14.1396,-26.9612,-13.9228,38.0625,2.69059,9.28869,-3.7338,0.00392378,0.158368,-0.0544152,-7.24346,-21.9606,6.43908,35.3125,9.67238,-1.23056,-1.02845,0.115598,-0.131107,0.05307,-2.13963,-7.38382,25.2608,2
walking,112.0,33.25,-13.4823,0.0914799,1.18489,1.85472,2.08853,2.45579,40.3278,1.56112,-37.1943,37.625,0.8203,11.6069,-1.49069,-0.105822,-0.125549,-0.0193682,-8.68878,-37.6631,-14.2377,33.25,3.05001,-2.27056,-3.44387,0.727124,0.713037,0.603772,-41.4184,21.4783,-1.03165,8
transient activities,98.0,35.1875,-6.58129,3.28291,3.47127,0.498102,0.288716,-0.170275,53.1507,-20.3418,-34.0691,37.75,-0.749447,8.23217,-0.152922,-0.289936,0.631546,0.503494,10.5048,-47.408,-5.72956,34.25,9.52451,3.1322,-0.478197,-0.155865,-0.310432,-0.771725,-53.6305,44.527,11.8054,5
walking,97.0,33.0625,-11.487,4.1179,3.43346,-1.21368,0.299086,0.0851219,41.2774,25.1068,-10.6989,38.125,1.92448,15.5054,2.00153,-0.586696,0.495518,0.405042,4.38909,-41.7971,24.089,32.3125,15.8118,-76.9246,-16.7805,-0.501479,0.20284,-2.22908,-41.534,0.165629,17.0053,7
transient activities,117.0,32.375,-6.77969,5.95017,-3.89178,-0.034154,0.0331411,-0.0317267,6.98749,-35.9635,13.4939,35.125,0.304718,9.92802,0.557641,0.00319102,0.0340984,-9.89203e-05,-13.7287,-28.579,-13.7603,33.25,9.32011,2.56803,-0.978457,-0.00305771,-0.00147681,0.00355811,-24.1241,28.0439,29.3736,4
transient activities,86.0,35.5,-6.63621,4.07422,2.8135,2.94765,-0.0871541,-2.06394,31.2544,-30.7005,-14.1459,37.625,0.29233,3.3687,-0.54417,-0.120644,0.0584692,0.379263,-10.6978,-17.8428,-27.9006,34.5,11.3417,0.132064,-1.79158,0.438992,1.56718,6.51591,-43.145,22.4265,29.3132,5
transient activities,114.0,32.4375,1.69782,-8.50472,-4.79368,0.0967228,-0.115098,-0.0623775,-4.29252,15.3957,15.6987,37.0625,0.633625,9.77323,0.0994517,8.71404e-06,-0.00504166,-0.00941819,16.9023,-26.6295,0.824184,32.6875,9.72123,0.335636,-2.23394,-0.0118587,-0.0412264,0.0527897,-26.7903,12.842,24.5596,8
walking,114.0,34.4375,-6.94422,3.14665,0.656719,-0.122751,0.0880442,1.96346,30.8563,-36.9991,-0.852453,38.0625,1.99858,7.0579,0.133006,-0.114055,-0.0450925,-0.163155,-11.9283,-36.8993,-13.7006,33.8125,8.91491,1.71552,-3.21552,-0.0799227,-0.28128,-0.472699,-37.5309,21.6269,27.7738,5
sitting,94.0,32.5,-7.82843,3.90824,4.41267,-0.0190047,0.0134653,-0.0271504,-3.35955,-47.8204,-30.7279,34.25,1.06537,9.73711,0.533321,0.00425164,-0.0290099,-0.000946638,12.7609,-62.439,-39.0336,32.9375,9.15022,1.03717,-4.01927,0.0320232,0.000817325,0.0296673,-83.9837,37.6576,16.1369,1
ironing,116.0,33.4375,0.252602,6.78979,7.02567,0.707402,1.04146,1.17032,0.305499,-45.3187,-34.2043,35.375,1.70334,9.40552,-3.63591,0.196748,0.599884,-0.505197,-10.8252,-44.431,-3.35679,34.0625,9.71782,0.526764,-2.38952,0.143419,-0.03673,0.0792359,-47.0514,10.8266,46.191,4
standing,77.0,32.75,-9.10907,2.4984,2.62782,0.0136364,-0.000199215,-0.0280008,32.4029,-16.3646,-11.3481,35.3125,0.547003,9.73348,-0.250477,0.0155861,0.00162642,-0.012647,0.639542,-32.7277,-6.72758,32.1875,9.59761,-0.572971,-2.46111,-0.0049088,-0.00409261,-0.0177402,-10.4479,-8.10487,8.47253,7
cycling,114.0,29.6875,-1.05404,4.20916,5.8217,-0.3346,0.00265057,0.114608,17.9439,-22.3156,-36.9463,34.5625,-0.342865,2.24992,-10.3484,-0.0759001,-0.303705,0.13198,4.40262,-17.1733,39.1054,33.4375,7.58295,3.17052,0.968058,-0.317704,-0.0391482,1.75903,-41.4878,11.4632,14.7673,2
ascending stairs,147.45454545454547,33.3125,-7.72277,0.543353,1.61602,-1.22554,-1.05459,1.09161,49.4656,-8.61045,-43.4503,36.6875,-0.307314,6.33085,-8.23141,-0.325934,-0.830288,0.0154087,37.8077,-40.8325,18.9578,35.0,11.5121,0.744158,-2.48824,2.24324,0.28243,-1.74374,-58.3573,-13.4869,-7.43312,6
lying,72.0,34.1875,6.41799,-2.25163,6.95609,-0.0496749,0.00398746,0.0122518,-39.7699,-6.55833,-15.592,37.25,0.998113,-0.669458,9.54919,-0.0133841,-0.00596055,-0.00642101,34.6755,14.79,-30.0263,33.6875,-0.949728,6.52084,-7.59135,0.00756966,0.0111368,0.00291663,-14.5745,9.1815,37.6554,8
transient activities,90.0,31.4375,-10.3833,3.13526,0.605243,-0.730716,0.243573,-0.471884,32.4511,-26.422,-15.6178,34.5,2.52598,11.1942,-0.451698,0.0183592,0.234535,0.158008,-3.73997,-31.6624,-7.61012,31.1875,9.68541,-0.822032,-4.58109,0.435782,-0.417578,-0.0488167,-16.4595,1.45432,48.5788,7
lying,64.0,33.375,5.00701,-0.141516,8.31338,-0.0361479,0.0121585,-0.00318413,14.9357,24.3836,-39.6434,35.5,0.725739,-1.0462,9.39059,0.0466596,0.0199772,-0.0231393,36.5394,16.9114,-27.9103,34.5625,-0.123648,-9.46692,-3.16163,0.00600895,0.0145698,0.0139731,-17.3349,26.8307,-5.2081,6
transient activities,135.0,31.0625,1.85135,9.45839,1.38297,0.0131344,0.0137464,0.0225787,-5.17978,-77.2999,2.0736,34.8125,0.439664,9.49213,-2.57489,0.0431193,-0.0319793,-0.0106043,-8.15181,-64.7256,30.638,33.4375,9.7524,0.810191,0.078804,-0.0381464,-0.00524239,-0.00917337,-72.4978,-45.1343,-11.205,1
transient activities,126.0,33.5,-3.93476,1.99347,1.62939,0.172394,-0.455633,1.98319,8.64405,-29.6444,-42.821,37.1875,0.735644,6.26166,-1.28124,0.2192,-0.68957,0.110854,26.6336,-48.9555,-12.3281,34.875,8.90598,1.89756,-2.252,-0.627626,0.274259,-0.43427,-28.9526,5.63356,-11.8861,1
transient activities,92.0,34.4375,0.66096,9.7559,-0.329305,0.0346656,-0.0214897,-0.025071,-58.2017,-29.8684,27.2371,36.0625,1.24653,5.57135,-8.43312,-0.00896504,-0.0943034,0.0545924,-14.5047,-32.198,20.9419,33.875,9.20496,-2.61866,-2.72257,0.0107239,-0.0238396,0.00968657,-34.3014,28.3379,44.2299,5
standing,86.54545454545455,34.1875,-8.37545,4.78744,0.437309,0.0173171,-0.0336509,0.0896223,23.4145,-25.5433,3.2298,37.5,0.54269,8.95362,-4.19756,0.0210506,-0.00649806,0.0885471,-8.94723,-25.2635,7.26682,34.875,9.77616,-1.3809,-1.29658,0.0180325,0.0166862,0.0234774,-18.5058,-16.9863,35.9372,2
lying,61.0,32.8125,5.52455,0.30598,7.89626,0.00750897,-0.0311374,0.00601555,16.8792,6.899,-50.4336,34.875,-0.407195,1.63154,9.47753,-0.0342292,-0.0372303,-0.00342957,40.8385,6.04942,-28.6647,33.5625,2.46179,-9.55427,0.917329,0.014499,-0.0118569,0.00350697,-21.1391,15.5387,-13.151,4
walking,109.0,30.5625,-8.47386,2.03716,2.52343,1.83611,1.74971,-1.88629,47.2113,22.4276,-17.5187,35.4375,0.795092,6.11585,-0.543991,0.176805,-0.318193,0.350617,28.3304,-33.0083,24.2056,33.25,12.88,0.245969,-2.97279,1.59036,-0.410849,5.69926,-35.0586,-22.4988,-6.20605,4
standing,86.0,34.0625,-8.64504,4.258,0.396569,-0.00703476,-0.0327263,-0.0117732,24.3017,-24.7183,2.76562,37.4375,0.813122,9.02887,-4.07674,-0.0971728,0.0335668,0.0134817,-9.39254,-25.2351,5.78916,34.75,9.66129,-1.45548,-1.37447,-0.0509017,0.0184115,0.0296141,-18.7238,-17.4198,35.9343,2
ascending stairs,129.0,33.375,-9.32554,1.43253,2.05087,-1.33185,0.413036,0.797515,46.1345,-27.2767,-15.9028,36.75,1.78217,7.94703,-2.11962,-0.511592,1.5673,0.368666,-7.64253,-38.7335,-14.2243,35.0625,10.4148,-4.28159,-4.59073,1.39584,2.23119,2.49931,-53.7574,-20.4752,14.4333,6
transient activities,134.0,31.0625,2.91092,8.44758,3.82696,0.282433,0.138227,-0.242291,-13.2571,-73.6391,-17.6998,34.8125,0.0931017,9.45477,-2.69721,0.057049,-0.0143374,0.00732061,-8.19763,-63.6156,31.6194,33.4375,9.67546,0.621144,0.0405986,0.039559,-0.000599238,0.000527543,-72.1372,-45.8332,-9.3587,1
walking,121.0,32.0,-9.02272,2.8316,1.78127,0.0728643,-0.145158,-0.165602,31.1404,-15.7887,-20.1307,36.5,1.33967,8.95035,-4.29927,-0.0244064,-0.066377,-0.0181386,4.51489,-30.1676,5.62579,34.625,9.6539,-1.60543,-1.60516,-0.000801454,-0.0380284,0.0118864,-26.4449,18.523,16.4525,2
Nordic walking,123.0,33.0,1.29629,1.56139,8.79088,0.329307,0.213663,0.364058,12.5317,-7.25876,-42.465,38.3125,1.28314,9.34886,-1.08775,0.0135068,0.113558,0.0383191,2.28736,-36.9376,14.3174,32.4375,9.33916,-0.941919,-3.58057,0.0894684,0.0414729,-0.00130977,-19.4266,14.146,23.733,7
sitting,87.0,33.5,0.126251,8.81297,4.05343,0.0321694,-0.0371351,-0.0147459,3.22827,-22.6309,-19.3873,35.75,0.702124,9.59184,1.14675,-0.0242937,0.00491644,-0.0166133,3.84636,-24.7223,-5.62268,34.6875,9.39001,-1.32634,-3.03741,-0.0225713,-0.0251862,0.00092119,-18.1591,-3.20128,12.8365,6
transient activities,84.0,33.75,-9.80455,-1.68568,0.861101,-0.0184661,-0.0173761,0.00612054,48.8405,-5.9333,12.1772,36.6875,0.0188181,9.62348,-0.0660836,0.014251,-0.0378304,-0.00842838,8.31857,-38.9771,25.2283,33.3125,9.55296,-0.266416,-2.77219,0.0192038,-0.00180315,0.044576,-35.1949,38.3712,-17.4819,8
sitting,94.0,32.0,-0.876023,9.57184,-1.04448,-0.604845,-1.19002,0.0408245,48.8656,-44.2315,30.0489,33.75,1.63455,8.03523,-5.83979,0.0110951,-0.0710423,0.00889161,10.1155,-22.374,61.4943,32.4375,9.5222,1.85066,-1.62795,-0.0182419,0.00241639,0.0122198,-61.941,-69.4671,-51.779,1
vacuum cleaning,102.0,34.25,-9.73971,3.57409,-4.89029,0.361518,-0.868475,0.373832,59.6327,-0.557128,5.69232,37.4375,1.21637,9.02394,-4.61151,0.257289,-0.097805,0.0182562,-20.8611,-28.7389,20.596,33.1875,8.77733,-3.56205,-3.107,-0.378172,0.105896,0.188696,-56.0633,4.39478,26.5939,7
transient activities,128.0,30.1875,2.52977,9.3293,0.277438,-0.0552873,0.461519,0.708796,-1.44583,-67.5833,8.15346,33.625,2.43248,7.82389,-3.30779,-0.0566958,0.0608886,-0.0634001,-18.3138,-51.1361,35.773,33.0625,8.89876,-3.08178,-1.56515,-0.721211,0.300032,-0.958908,-55.1295,-22.8751,28.252,1
ironing,85.0,32.75,-7.70634,0.70995,7.50428,-0.372555,1.67047,0.388551,-0.164314,-31.1376,-30.8161,35.9375,-1.92655,9.03848,-3.97152,-0.358176,-0.118796,-0.0498789,4.33029,-33.8118,1.57299,33.625,9.89544,0.16474,-0.0314922,1.40342,-0.184893,-0.333976,-35.3761,17.4077,32.9762,3
standing,85.0,34.625,8.35735,2.754,4.12019,0.0654297,0.0459598,0.00508287,-19.3942,-10.2678,-38.8388,37.6875,0.0560644,9.44376,1.21297,0.00307871,-0.0578455,0.00485864,-5.41365,-37.0224,-2.65618,34.4375,8.93957,-0.513863,-4.55206,0.00964953,-0.00574166,0.0256082,-36.8078,-2.65961,12.0611,8
transient activities,129.0,33.5625,-9.9557,2.05508,-1.00118,-2.30392,-0.337396,-0.637361,35.0982,-13.6441,3.72167,37.75,2.32302,11.4003,-3.47628,-0.159734,-0.886215,0.418246,16.226,-24.6948,24.3562,33.5625,13.6109,-5.65367,-6.40174,-3.09313,2.39996,1.22082,-37.7217,23.9423,-19.7433,8
ironing,90.0,35.4375,-3.31698,7.91851,-1.38336,2.06494,-0.0978463,-0.539145,9.01363,-40.2892,16.0094,37.5625,1.6286,9.10505,-3.55884,-0.546752,0.494064,-0.187765,-19.2331,-35.4901,6.26324,34.5,9.46727,-1.28949,-2.95967,0.182127,0.20499,-0.120844,-34.0085,3.48147,46.2454,5
transient activities,103.0,29.9375,-9.02199,2.23559,3.01489,-0.0381582,0.00742411,-0.0217464,49.2923,-25.7138,-24.58,35.125,0.735863,9.66599,0.992234,0.0640656,0.0537103,-0.0265863,-1.64683,-38.0467,-19.2627,33.0625,9.47782,2.41264,-0.667158,0.0184963,0.00810916,-0.0144133,-94.8043,-14.5215,29.3162,4
transient activities,107.0,32.5625,-9.18467,3.44579,2.43106,-0.0451222,0.0813477,0.204489,38.1086,-43.725,-11.6005,37.1875,0.738834,9.3306,-4.04034,0.0152378,0.0882854,-0.00220817,-10.6899,-47.5594,-4.31206,35.0,9.69643,-1.68321,-1.41129,0.0125083,-0.0489517,0.0220596,-45.4262,29.3048,44.5729,2
transient activities,114.0,30.1875,-9.22538,2.08194,2.62749,-0.0180117,-0.0897748,-0.041333,35.4365,1.33982,-16.5796,35.25,1.1314,9.7722,0.185915,0.0268524,-0.0967652,-0.0460021,3.73843,-26.0243,9.89444,33.125,9.4062,0.722359,-2.85701,-0.0486901,-0.0161252,0.000937424,-28.8301,6.98882,13.4963,4
standing,76.0,33.3125,-8.84148,4.33333,0.162448,-0.0343785,0.0997105,0.0464588,27.2098,-21.0483,-6.84724,36.0625,1.75598,9.57672,-0.576553,0.0157341,0.0139256,-0.0126757,-3.02758,-30.0143,-5.49946,32.5625,9.22261,0.352937,-3.9757,0.0396715,0.00122993,0.018663,2.97111,-6.44158,13.6238,7
vacuum cleaning,103.0,34.6875,-9.56025,2.52081,0.504183,-0.0837477,-0.224456,-0.211152,72.0618,2.24074,-14.0346,38.25,1.02857,10.519,-0.786399,-0.287002,-0.0991026,-0.286579,5.24971,-33.6823,3.46223,34.6875,10.1223,-2.12489,-3.44943,-0.00096181,-0.13485,-0.141056,-9.80809,21.7994,31.2751,8
ironing,91.0,34.3125,-2.23163,3.90513,8.96105,0.600859,-0.900912,-0.940991,-14.8524,-20.9636,-36.4404,37.6875,-1.52107,8.58248,-4.38862,0.29724,-0.873973,0.287932,-1.26346,-33.3115,3.94035,35.0625,9.55309,-1.31454,0.0513564,-0.214557,-0.00993951,0.0226156,-41.8235,5.07355,31.7834,2
vacuum cleaning,134.0,33.6875,-12.7124,10.0019,-1.53113,0.758596,0.359677,-1.56922,48.0423,-22.3687,0.667394,35.6875,-2.78273,0.045954,-8.91408,-0.789241,-0.511442,0.255029,26.0095,13.2702,40.3324,34.625,9.48989,-4.20625,10.1791,-3.83234,-0.139785,0.720053,-40.6237,-15.431,-23.1554,1
standing,92.0,34.25,-8.33579,4.86337,0.476134,-0.108756,0.150046,-0.0807341,21.5754,-27.8024,1.02767,37.5,0.880799,9.25248,-4.38601,0.183395,0.14479,-0.122975,-8.60391,-24.9185,4.94351,34.875,9.71009,-0.964696,-1.0683,0.0608187,-0.0245754,-0.039816,-18.962,-15.2328,38.0638,2
transient activities,77.0,31.625,-9.09802,2.11268,1.93652,0.367944,-0.138174,0.0181304,29.634,-9.8814,-24.216,34.375,-1.96973,9.44878,0.982645,0.0415173,-0.108658,0.00741064,10.9983,-24.4251,-10.5709,32.375,9.92164,0.548044,-0.496677,-0.0206982,0.00789475,-0.0137307,-6.97561,2.47904,26.5195,3
transient activities,146.0,30.8125,-12.2762,-3.16592,2.8689,-0.497392,0.642656,1.06651,52.0185,-3.1436,-15.7986,34.25,2.86841,13.2715,0.63194,0.636634,-0.0167434,-0.0476006,6.54129,-44.1616,-10.4287,31.8125,14.6572,-1.78586,-1.93862,0.149046,1.16753,3.56841,-33.135,-24.1729,26.1404,8
transient activities,137.0,30.875,4.52845,-13.06,5.8866,0.318811,-0.00162692,0.267562,2.55155,37.7046,-36.6808,34.0625,3.60602,11.8536,-2.64137,-0.163589,0.544413,0.178046,-16.6219,-39.9816,16.0362,31.6875,11.6527,5.97688,-6.41682,2.4673,1.54607,2.07821,-23.8021,35.6085,-19.4242,8
transient activities,111.0,33.5,-8.17597,4.88391,2.90316,-1.27677,0.502234,0.692486,44.2028,-11.7142,-32.0407,35.4375,3.68281,9.3235,-3.67722,0.084666,1.07948,-0.30601,9.27373,-50.0384,10.5743,34.3125,10.6399,-0.398525,-1.371,0.262437,-0.187613,-0.0935928,-62.4416,-7.69497,9.28806,1
descending stairs,158.0,33.25,-3.27056,3.66278,10.6398,-0.556369,1.58178,-0.666224,45.7466,-42.398,-19.2224,36.6875,0.716333,13.086,0.0127404,-0.0561891,0.573591,-0.282855,-33.6613,-39.3468,10.2739,35.0,27.8216,7.50457,-1.28243,3.88595,-1.44511,5.5798,-38.1994,-26.593,36.6209,6
cycling,116.72727272727272,29.75,-6.02828,4.84737,4.9368,0.223369,0.490382,-0.321938,20.3706,-4.10594,-59.2292,34.625,0.897523,2.3147,-5.75711,-0.283134,-0.0802529,0.579481,17.0398,-27.8737,38.915,33.5,4.26656,-2.66394,-2.69575,-0.0812849,0.364772,-0.472946,-40.7293,35.2022,11.3009,2
standing,90.0,35.25,-9.018,3.37277,2.89565,0.882498,-0.987273,-1.39717,42.9169,-2.02595,0.879504,37.1875,0.386191,10.0331,-0.564132,-0.0641244,-0.633145,-0.531048,-8.186,-27.388,8.12716,34.375,9.6997,-1.26587,-1.37526,-0.536111,0.0837321,0.0305252,-5.76753,-10.5782,34.7308,5
transient activities,104.0,32.3125,4.30222,-7.53852,3.67081,0.421253,-1.09632,-0.0672534,14.0808,32.5157,-10.0326,36.9375,1.84631,9.43791,1.2067,-0.0974151,0.993127,-0.17247,17.3738,-32.467,16.6531,32.4375,8.60133,-1.83155,-5.66645,2.84147,0.73017,-0.797403,-39.122,11.6257,14.7312,8
Nordic walking,126.0,30.25,-9.24142,0.760946,-0.832163,-1.72596,-0.269866,-0.800601,29.8842,-27.5192,-24.6405,35.1875,2.78804,14.2719,-7.34928,0.108012,-0.104229,0.137829,14.8918,-20.83,34.1114,34.0,15.9724,-1.18731,-1.85167,-0.286532,0.5789,-2.77719,-33.058,-20.4601,3.46531,2
transient activities,133.0,28.75,-20.6361,8.51715,12.0952,3.98104,1.72169,-1.75891,44.9545,4.52155,-20.1858,32.3125,-0.299051,13.4913,-7.32523,0.0425947,0.50693,0.117256,7.6439,-31.5757,38.1545,30.4375,58.9108,76.2969,31.4878,3.16759,-2.07397,2.28321,-41.2845,-38.4356,8.16823,2
ironing,91.0,33.9375,-4.31638,7.27069,5.87797,3.10722,-1.63929,-0.935435,12.8881,-35.7137,-68.5396,36.3125,0.861715,9.54659,0.104321,-0.00390925,-0.512121,-0.235374,3.01006,-38.7337,-19.9314,35.0,9.79228,0.450353,-2.38829,-0.215756,0.155441,0.410155,-44.4426,25.5932,33.4181,6
walking,122.0,33.4375,-16.2766,4.95269,3.47436,2.03087,0.301637,-3.40616,43.4722,-40.6225,-23.2014,37.25,-1.02937,15.067,-5.756025,-0.6521889999999999,-0.260942,-0.0109241999999999,-10.29385,-61.521150000000006,-6.40873,34.875,18.8959,-5.44462,-3.49321,-0.759732,1.69423,-2.93813,-59.5439,-14.6006,23.3015,1
transient activities,106.0,34.875,0.453815,4.60459,8.92194,-0.030328,0.0321681,0.0209346,4.64703,-14.2613,-9.46734,37.8125,0.935827,6.55815,-7.43521,-0.00749889,0.0396171,0.00826518,-2.09023,-12.6521,7.38088,33.9375,9.18354,-0.597005,-3.85443,0.0350425,-0.0056752,-0.0310415,-27.0195,6.0325,25.4177,5
transient activities,116.0,28.1875,-9.21247,2.71924,1.77881,0.11672,-0.118487,-0.136594,41.1165,-19.6342,-11.4911,31.8125,0.482927,6.52296,-7.28841,0.0101489,-0.000724048,-0.0177364,-3.20928,-33.0829,22.6656,30.0625,9.52476,-0.611108,-2.38444,0.0630533,-0.0445377,0.0687106,-26.9891,4.0636,35.2408,2
transient activities,91.0,31.0,-6.09665,4.55534,1.93475,0.638112,1.57347,0.649298,1.45141,-38.7592,-20.8484,33.0,1.3672,9.43442,0.462331,0.06632,0.552944,-0.300311,-14.6065,-34.3011,2.02047,31.0625,9.67508,-0.916448,-2.30383,0.0204657,-0.0671292,-0.546049,-30.3912,9.13089,53.3944,3
ascending stairs,123.0,32.5625,-17.3193,2.86222,2.15723,-0.573828,0.752566,-1.0918,55.5168,-36.9247,37.0232,35.25,0.186385,15.32,-3.95366,0.195139,0.240024,-0.335056,-37.8252,-29.1512,26.8255,33.375,17.2989,-1.18974,-2.57125,-0.0297417,0.132179,-0.96654,-16.81,-16.6728,51.4352,4
ascending stairs,144.0,34.625,-8.49128,4.6753,4.74654,-1.5234,0.851926,-0.106634,46.1465,-3.20992,-26.8098,37.9375,1.38983,10.7767,-1.47767,-0.221964,0.675159,-0.051068,8.07515,-38.0636,23.5294,33.75,6.57661,-2.51878,-8.30704,3.40979,1.43813,-1.27373,-9.93797,-39.0336,6.95005,5
Nordic walking,144.0,32.5,-20.2306,5.05401,7.0711,-0.491376,1.70184,-2.91009,14.6146,-61.7822,-16.1552,37.0,0.91549,10.9826,-4.66205,-0.285788,-0.289734,0.769754,-25.9753,-53.7929,24.376,34.25,13.8375,8.01838,-2.35518,-1.94576,0.424034,-1.83299,-23.3152,-60.3948,2.21699,1
vacuum cleaning,138.0,33.625,-2.62424,7.08442,3.51772,-0.839858,0.237051,1.5528,15.949,-35.6302,-16.4673,35.625,-0.326333,0.870078,-8.36889,0.992944,0.0580065,-0.229782,1.1751,-10.6481,46.0522,34.5625,9.26364,3.14422,-1.7544,0.0144939,0.724895,0.0513786,-11.4659,29.9328,-10.5321,1
transient activities,127.0,33.8125,1.03041,9.42956,1.67867,-0.0157296,-0.086388,-0.0712753,-19.9031,-35.2725,-1.00811,36.5,-0.0695228,9.64985,-1.77149,0.0562112,-0.139554,-0.0368698,-19.2543,-37.3734,0.597441,34.875,9.17168,-3.3041,-2.44853,-0.103222,0.0123633,-0.0233588,-38.6977,7.21538,19.8979,1
ironing,89.0,35.25,0.7432,8.09182,4.56544,1.37733,0.633925,0.586843,15.1369,-72.9086,-24.2246,37.25,-1.90549,9.80462,-2.03758,0.0667571,0.193418,0.132874,-10.97,-41.8448,-4.78253,34.4375,9.36466,2.46232,-2.01926,-0.936786,-0.0142691,0.720974,-45.7145,25.9171,34.4061,5
cycling,123.45454545454544,32.0,-1.50752,5.90835,8.73421,0.283346,-0.331843,0.0241431,56.6239,-0.418471,-44.097,36.6875,0.256091,9.38403,-7.49543,-0.0784621,-0.0229915,0.187656,15.4802,-11.5443,67.3514,34.0,7.31636,6.94883,-1.21914,-0.0401739,0.0118149,-0.0161084,-27.5041,-56.1528,-23.9446,1
sitting,85.0,32.1875,1.92564,8.1234,4.89094,0.00873042,-0.0133279,0.0141268,-12.3993,-24.7074,-69.4916,33.9375,0.35633,9.69642,-0.253811,0.0129047,0.00405483,-0.0115656,13.6549,-65.8515,-35.7151,32.625,-1.19843,0.846738,-9.98983,-0.00197801,-0.0202792,-0.00291729,-11.7646,34.0405,72.4459,1
transient activities,130.0,27.5,-4.81797,7.79968,-3.25284,-0.0455383,0.0277038,-0.0395712,24.6874,-31.5713,14.7437,32.625,0.573011,9.62648,0.640924,0.109022,-0.00980846,-0.040843,-2.5341,-43.4595,8.25774,32.6875,9.59135,0.341487,-2.85275,-0.0212759,0.0414158,0.00233693,-38.4966,-9.89458,18.5879,4
running,154.0,33.8125,-6.87426,-7.00634,-1.77117,-0.166727,0.801893,0.599674,3.35754,-44.1135,-29.6247,36.5,-1.09773,-7.30686,-4.05826,-0.788589,-0.0111845,-0.546656,-4.32151,-48.4271,11.9396,34.125,16.0809,-7.4339,0.503582,1.44692,-0.560283,-4.8716,-19.0939,-31.7037,23.7874,5
standing,83.0,33.625,-8.19019,3.29948,3.90897,0.0371365,-0.0419512,-0.0106585,25.6152,-23.7122,-34.7803,36.0,0.367867,9.73666,0.133477,-0.00898471,0.0249312,-0.0295194,-6.54585,-31.2906,-17.3611,34.8125,9.59199,-2.29321,-1.02268,0.0265698,-0.0110241,0.0429335,-36.8591,20.2124,39.6917,6
cycling,124.0,29.1875,-5.25695,4.57176,8.72105,0.740897,-0.352585,-0.199504,44.1176,-35.4789,-19.9129,33.5625,-0.633466,0.748882,-9.72929,-0.286462,0.272554,0.602856,-16.8055,5.65286,52.0529,32.5,4.00153,2.86908,-1.22782,-0.0991144,-0.299556,-0.425657,-34.6901,-24.512,30.7905,2
descending stairs,153.0,31.6875,1.05326,4.69269,6.58289,-0.445585,-2.65401,-1.36805,-1.49365,-26.1935,-53.8934,36.75,-1.04218,4.18312,-3.24274,-0.462082,-3.24035,-0.116494,0.974367,-31.9755,-15.8815,34.4375,21.2806,26.6246,15.0096,5.77192,-1.70716,-2.87957,-26.1947,28.1744,36.9769,3
transient activities,129.0,32.0625,1.80779,8.94657,3.50085,-0.024868,-0.0475571,-0.0225121,21.2104,-57.918,-33.317,36.6875,-0.412255,9.76388,-1.77807,-0.00904428,0.0067784,-0.0246482,23.7332,-44.8642,27.3487,33.9375,9.51005,-2.59487,-1.2146,0.0210009,0.032463,-0.0086641,-69.2908,-10.6318,-25.9642,1
transient activities,91.0,34.5625,-5.35512,5.79693,5.63645,0.0235757,0.00268004,0.00898827,16.7617,-25.1128,-17.1733,38.125,0.841569,9.41163,-3.14816,-0.0193359,0.0179808,-0.0139088,-3.56913,-23.2023,6.61574,35.375,9.69651,-1.45508,-1.45129,0.0190755,-0.00224135,0.0059724,-0.359253,-6.34655,25.5048,2
cycling,124.0,29.1875,-2.8393,3.16992,6.83762,0.000190847,-0.121947,-0.276937,21.814,-35.9762,-41.4199,33.5625,-0.863717,2.17046,-11.2095,-0.167813,-0.194963,0.171217,-7.00945,-19.0513,41.749,32.5625,14.4796,-1.64606,-0.320549,-1.458,0.142512,-0.0595765,-47.8701,7.32203,36.4366,2
transient activities,116.0,33.5625,-11.9545,3.56933,5.31419,-1.23459,0.0833309,0.00852921,65.3132,10.4375,3.36922,37.125,0.30472,11.7921,-2.1976,-0.0495674,0.467124,0.0589715,-16.8756,-49.242,31.1394,34.875,12.7244,21.0182,6.00385,-0.247958,-0.207084,-0.195949,-86.8047,-2.15363,56.0872,1
walking,93.0,31.75,-7.42841,1.24883,0.155533,-0.566862,-1.26867,1.96483,38.3213,-3.52663,-11.8316,36.5,1.00676,8.90471,-0.08457,-0.0722096,-0.487842,-0.124186,9.74662,-21.6181,24.0117,34.875,10.1062,-1.40839,-2.83661,-0.585106,0.256605,-1.13226,-26.5771,-22.4853,10.8436,6
ironing,102.0,33.25,-2.32543,5.68114,8.06844,1.84718,-1.55192,1.52597,-12.9979,-73.6438,-77.766,35.0,-0.337896,9.34053,-3.09186,-0.0369972,0.174602,-0.0857444,-21.4685,-59.4435,-9.51735,33.75,9.59784,-1.38228,-0.989683,0.0246489,0.0179568,-0.0576303,-55.8139,-4.32371,45.6608,1
transient activities,128.0,34.9375,-9.78504,4.05748,2.42,-0.591784,0.450812,0.244372,29.5837,-23.2832,-4.73878,37.8125,1.37443,9.4273,-0.58298,-0.401576,0.638682,-0.465342,2.16466,-15.5198,9.68284,34.0,9.76939,0.07677,-3.1194,0.184929,0.14632,-0.551492,-31.3272,43.4091,53.5838,5
walking,109.0,34.8125,-9.44974,3.75067,2.34908,-0.97325,0.161197,-1.02336,46.4393,4.71439,-30.1393,38.375,-1.84242,11.9061,2.48708,0.237668,0.0760482,0.153331,8.13285,-41.5475,23.2676,34.4375,12.6418,25.5603,-10.8502,-0.943931,-0.275684,0.861084,-45.0479,7.15136,12.5881,5
standing,86.0,34.1875,-8.57589,4.86176,0.0876692,-0.0076204,-0.0274864,-0.0634188,22.9734,-25.412,3.46773,37.5625,0.500099,8.99036,-4.35333,-0.0189152,0.00974801,-0.0470518,-8.73347,-24.9377,7.51566,34.875,9.77216,-1.30367,-1.45146,0.0456387,0.00249725,0.00608675,-18.6144,-16.8802,36.5581,2
transient activities,92.0,34.375,-9.11871,2.83683,2.28015,-0.032266,-0.171608,0.0920416,20.5202,-0.246029,-30.0257,38.1875,0.577453,9.56359,-3.076,-0.00188341,-0.0452061,-0.00998656,23.6944,-23.5306,4.0871,35.4375,9.76674,-1.07394,-1.68448,0.0495434,-0.0111325,0.0343278,-12.9762,6.38246,-2.60155,2
standing,89.0,33.6875,-8.22343,3.37666,4.02367,-0.02246,0.0525619,0.0275449,24.8632,-22.432,-36.0988,36.0625,0.524255,9.92523,0.25186,0.0457759,0.0578632,-0.0650812,-5.02177,-31.6064,-15.7976,34.8125,9.79943,-0.502396,-1.95782,0.0298399,-0.00871269,-0.0287204,-37.3661,20.4977,40.5405,6
lying,74.0,33.8125,2.20331,-2.60299,6.39381,1.2341,0.509423,0.381245,13.9127,27.1435,-31.5065,37.1875,-3.59451,9.03441,0.180137,0.514415,1.10987,-0.477951,40.9739,-14.2464,1.05221,34.6875,3.2067,-6.02151,0.131253,-0.0974769,-1.60558,-1.21697,-23.7302,19.938,-6.20615,2
transient activities,142.0,33.8125,-3.65269,10.8861,-0.782606,-4.39754,-3.65505,-2.58672,14.5782,-29.1996,-28.5567,36.375,-2.03411,9.16202,-2.46375,0.577838,-2.27846,-0.620479,-0.0470707,-34.7787,5.54667,34.0625,8.71828,-0.105791,-3.20623,-5.24409,0.528222,1.49144,-48.2728,-14.0523,15.0125,5
standing,99.0,33.3125,-8.98206,1.97073,3.13184,-0.0220243,0.0198064,-0.00776637,37.1366,-3.0862,-4.6141,35.3125,0.360136,9.55551,1.17939,0.00106094,0.0380569,-0.0289547,-10.4746,-32.0698,2.92066,34.0,9.38035,2.72392,-1.51906,0.00580362,-0.0165213,-0.00522478,-3.08388,-20.1636,16.7387,4
transient activities,87.0,35.5,-11.912,2.60388,3.47069,0.754504,0.142713,-2.50964,22.4906,-25.0216,-15.6061,37.625,0.140731,13.4833,-2.74817,-0.189428,-0.50995,0.0373192,-10.1633,-25.4942,-6.4208,34.4375,4.54753,-5.7893,-1.43861,-1.95928,-0.473608,0.769117,-21.7797,-14.0304,33.9693,5
transient activities,132.0,27.9375,-4.61218,7.16717,-5.90325,0.407014,0.18528,-0.193187,47.8947,-16.8053,9.22667,33.3125,-0.825897,9.72884,-1.59185,-0.484029,0.316775,0.310667,-3.13379,-39.9737,25.7183,33.875,6.54899,4.17246,-0.0520925,0.172984,0.399246,-0.428628,-23.4769,-34.4396,26.0444,6
lying,73.0,34.8125,0.786534,7.61035,5.91477,-0.0506833,-0.0362548,0.00926832,-9.61455,6.96022,-32.664,36.5625,-0.335888,1.93124,9.28424,-0.00010331,-0.0421862,0.00113197,38.657,4.96864,-28.1098,34.0625,-0.487505,-9.15269,-4.17064,0.0345681,0.00431073,-0.0120434,-13.2755,27.1386,-6.75433,5
standing,103.0,33.0625,-9.03291,4.23032,1.19909,-0.0908908,-0.0396379,-0.0866242,30.756,-24.5897,-9.06389,35.125,1.4183,9.58776,0.888689,0.0191549,0.0367121,-0.0744257,1.60476,-29.2738,-13.7907,33.875,9.36138,0.572649,-3.08808,0.0279172,0.00870235,-0.00414229,-5.55162,0.078416,28.4786,4
transient activities,89.0,31.0625,-3.86537,8.82789,2.22317,-0.0558677,0.0509545,-0.0389556,26.1448,-22.4833,-10.9046,36.1875,0.185671,9.7304,-0.876548,0.0166418,0.103739,-0.031441,3.93926,-25.519,12.8541,34.8125,9.34492,2.68555,-1.44201,0.0359773,-0.00614177,0.00204162,-26.6011,-12.3304,5.01664,6
sitting,86.0,34.9375,0.0968953,6.90344,6.86901,-0.0109464,0.0578725,-0.119199,4.10185,-21.934,-20.9681,36.8125,0.495543,9.45579,3.19566,0.154218,0.0262808,-0.0374682,3.96482,-20.9837,-8.46317,34.125,9.51656,-2.39595,-2.33486,-0.0018432,-0.0451516,0.0252084,-8.82394,-5.83076,21.2405,5
Nordic walking,145.0,32.3125,2.00912,5.19885,4.63265,0.415736,0.615227,-2.20468,37.6234,-53.2014,-0.23998,36.875,0.728375,4.37847,-1.35269,-0.113243,-0.248374,0.457974,-30.5672,-51.8275,21.7348,34.125,6.5136,-1.13021,-1.60172,2.12119,-1.89269,3.6993,-32.1537,-55.4786,12.8629,1
walking,114.0,31.0625,-10.7861,3.19913,3.13916,-2.10004,-1.18885,1.80868,44.2242,-22.0887,-18.8175,35.625,-0.00391335,8.37651,-0.720698,0.215311,0.925281,-0.0495991,-9.20834,-37.5151,-14.1011,33.4375,9.90075,0.13585,-1.15036,-0.632253,-0.288422,-0.197723,-39.6339,22.2338,23.3689,4
transient activities,123.0,33.625,-6.13852,-0.0841474,4.95179,1.69904,1.07338,-0.741752,62.8059,-6.18595,6.90112,36.0,-2.61489,6.60286,-2.5434,0.107445,-1.067,-0.198605,-17.2262,-33.4059,38.6964,34.4375,7.86669,6.30205,-1.47961,-3.52386,-1.30039,-1.02935,-7.34567,-43.711,36.3238,4
sitting,75.0,31.875,-0.206001,5.17327,8.29434,0.024205,0.0316843,-0.000929968,0.421239,-12.0562,-27.9554,34.8125,0.607001,9.22899,3.12097,0.0125731,0.0156849,-0.0180044,3.84905,-18.5114,-7.97473,32.8125,9.83638,0.236655,0.50771,0.000370818,-0.0239573,-0.0328797,-13.6816,-3.03265,18.9651,3
transient activities,100.0,33.25,-9.37846,4.84731,2.00007,0.274172,0.340001,-0.0787924,44.4088,-21.753,3.03022,36.3125,0.547891,9.33986,-2.76604,-0.0503609,0.0991248,-0.0156435,-17.0452,-33.9448,8.60316,34.0625,9.72111,-0.957223,-1.99439,-0.0273477,0.0376238,0.00701182,-46.7768,-0.547102,61.4708,2
transient activities,93.0,34.25,-8.38802,5.08727,0.0127478,-0.0320925,0.0345283,-0.0132718,21.5109,-26.5198,3.12535,37.5625,0.980322,8.83483,-4.8475,0.00563458,0.000343153,-0.0285774,-10.4763,-23.8781,7.98095,34.9375,9.76036,-1.45234,-1.83655,-0.0483841,-0.0078558,0.0144073,-18.1667,-16.3558,37.4265,2
ironing,86.0,32.6875,-2.22926,8.56281,3.71109,0.409197,-0.933533,-0.489982,-6.19189,-35.8787,-24.2017,35.875,0.644119,9.85087,0.447878,0.159186,-0.23554,-0.163668,0.888576,-30.1,-12.9384,33.5625,9.67235,-0.383281,-2.50011,-0.0664941,0.122241,-0.0348355,-29.2826,19.0703,41.2373,3
lying,76.0,31.5,7.00187,1.49763,6.68278,-0.0413156,0.041035,-0.0140178,7.06404,4.21501,-45.4469,34.0,1.03484,-0.331215,9.47131,0.00579793,0.0244627,-0.00843248,32.0669,8.55019,-27.6128,32.0,0.443447,-9.8631,-1.57119,0.00335674,0.0107098,0.0233827,-15.4641,22.9307,-4.26138,3
ironing,81.0,34.0625,-2.69002,7.77893,4.74599,0.368117,-0.754017,-0.294207,-2.1685,-40.4672,-28.5857,36.5,-0.509471,9.60884,-2.47631,-0.0412358,-0.466376,0.287667,-3.5425,-37.8617,-6.0225,35.125,9.2572,-0.82529,-3.85226,-0.0156409,0.147261,0.179798,-25.0207,20.0338,48.3853,6
sitting,86.0,32.375,1.10069,8.09355,5.07112,-0.0146649,-0.0369815,-0.039585,-38.8278,-13.3258,-48.3508,34.0625,0.87937,9.73874,0.68483,0.0148852,-0.00505071,-0.00772219,12.1144,-62.483,-44.0692,32.75,8.38981,2.56643,-4.73118,0.0220715,0.0389623,-0.00544938,-79.8616,23.2109,29.8124,1
standing,76.0,34.5,-9.40695,-1.1058,2.4046,-0.0325576,0.0137365,0.021146,46.951,-2.50374,-20.1229,37.5625,-0.0756832,9.77886,0.589955,-0.0278275,0.00480478,-0.0122111,-3.74358,-36.4471,4.8254,34.25,6.67068,-7.32092,-1.48451,-0.0250538,-0.0212418,-0.0171663,-19.7847,28.1807,18.184,8
sitting,81.0,33.8125,-0.744712,9.45329,2.76814,-0.113532,0.10085,-0.13252,-1.94695,-27.2883,-8.99725,37.3125,1.17336,9.48327,-3.5296,0.0171908,0.183623,-0.150292,-3.8705,-20.9495,5.75616,34.6875,9.41163,-1.4087,-2.26488,0.0869913,0.0432681,0.0057902,-11.3578,-6.69627,22.8679,2
walking,112.0,31.875,-5.96387,0.61084,2.21945,2.94889,0.874637,-1.22234,34.9306,-27.5555,-27.9518,35.75,0.884393,4.57571,0.043447,0.215909,-0.232132,0.285925,-11.0239,-36.8034,-13.9768,33.625,8.07514,-0.376619,-2.09205,1.43214,-0.460829,4.88622,-41.0755,-4.3344,26.7986,4
transient activities,123.0,32.5,-9.72255,-1.72252,1.05489,-0.16062,0.10516,0.111834,34.1628,16.3056,-7.48155,37.0625,-0.0547251,9.77485,0.00953391,-0.065524,0.119212,-0.0342901,16.6935,-25.8441,-2.84784,32.75,9.38085,-0.33498,-3.54532,0.0341302,0.0173111,-0.0134981,-20.0565,8.77598,25.7227,8
cycling,138.0,29.0625,-5.62944,10.9105,8.6556,0.427248,-2.14154,-0.396719,55.5707,18.5083,-15.1497,34.875,-2.92262,3.35204,-10.089,0.043746,-0.866068,0.347174,27.3782,12.5356,39.5919,34.125,7.58195,4.882,0.61012,-0.81245,0.754083,-2.18061,-13.8581,-35.0118,-5.26596,6
transient activities,125.0,33.5625,-6.19961,2.47706,7.02055,0.06992,-0.0368978,-0.0301216,3.41214,-13.9482,-10.9103,36.75,2.5948,9.68707,-0.561715,-0.114884,-0.0509223,-0.020938,-6.20634,-14.0325,-7.16337,35.125,6.86771,5.15834,-4.80146,0.0364203,0.0358755,-0.0172566,-21.744,-6.84045,27.8623,6
walking,106.0,32.5625,-8.91855,2.92249,-0.680669,-0.464726,-1.33857,1.79261,47.7388,-9.73884,-13.3878,36.6875,1.25872,9.05979,0.69391,-0.0971848,0.304977,-0.0570697,-5.18353,-32.0309,25.5179,35.0,11.317,-0.59392,-1.20848,-0.512228,0.140053,-1.14813,-33.0478,-25.7419,19.4764,6
ironing,93.0,35.375,1.99419,7.94146,5.81628,-0.317468,-0.475097,-0.414483,-16.0525,-37.8602,-22.0118,37.5,1.79471,9.22931,-1.81379,-0.300902,-0.229096,0.0428543,-10.9547,-36.6889,-2.69663,34.5,9.82911,0.33621,-2.3872,0.0640453,0.425536,-0.389281,-36.5181,11.3187,41.9725,5
transient activities,111.0,33.5,-7.22863,4.54619,4.15009,-0.0650282,-0.0409735,0.0590645,46.0527,1.64723,-8.59783,36.75,0.7107,9.66029,0.139936,-0.0256892,-0.0299107,0.0344431,18.5403,-30.1942,21.8655,35.125,9.52984,-0.270355,-2.27074,0.0214271,0.0447554,0.0016929,-22.9821,-9.8148,2.47348,6
