activityID,heart_rate,hand temperature (°C),hand acceleration X ±16g,hand acceleration Y ±16g,hand acceleration Z ±16g,hand gyroscope X,hand gyroscope Y,hand gyroscope Z,hand magnetometer X,hand magnetometer Y,hand magnetometer Z,chest temperature (°C),chest acceleration X ±16g,chest acceleration Y ±16g,chest acceleration Z ±16g,chest gyroscope X,chest gyroscope Y,chest gyroscope Z,chest magnetometer X,chest magnetometer Y,chest magnetometer Z,ankle temperature (°C),ankle acceleration X ±16g,ankle acceleration Y ±16g,ankle acceleration Z ±16g,ankle gyroscope X,ankle gyroscope Y,ankle gyroscope Z,ankle magnetometer X,ankle magnetometer Y,ankle magnetometer Z,PeopleId
cycling,120.0,30.6875,-5.06613,3.70827,5.68632,-0.268123,0.00675989,-0.110002,28.5949,-28.7154,-41.1863,34.6875,0.63831,9.50473,-6.17238,0.0045519,0.421947,-0.41735,-8.46887,-40.151,13.6968,31.875,10.5498,-2.48504,-1.51333,0.0244981,0.288294,0.982356,-43.7754,10.1598,6.49029,8
lying,78.0,32.625,4.71431,0.0904665,8.53914,0.0694319,-0.0354866,-0.00919247,20.3496,7.08657,-49.6544,34.5,-0.412117,1.93147,9.28286,0.00692922,-0.0833163,-0.0617279,39.949,5.43757,-28.8085,33.25,1.83966,-9.59239,1.41285,0.0582884,-0.00340896,0.0265459,-20.9078,16.2975,-13.8602,4
transient activities,128.0,33.8125,2.09146,9.46,1.77144,-0.00887878,0.0358304,-0.0112554,-34.1976,-31.3797,-2.30692,36.0625,-0.0208154,9.76503,-1.42249,-0.0291262,0.0252033,-0.0427857,-27.0906,-41.0054,-13.5003,34.875,9.81793,-0.55651,0.0107785,-0.0496443,0.00599568,0.0137462,-16.2209,25.3175,17.6791,1
walking,115.0,31.0,-9.46426,2.32621,0.0444287,-0.280534,-0.789622,2.67842,-0.780464,-36.5927,-26.9331,37.0,0.683859,11.478,1.64366,-0.19324,-0.21607,-0.116848,-6.69687,-33.6381,-13.7938,34.625,13.1918,-0.987068,-0.993868,-0.568381,-0.581035,-1.91836,-36.8665,15.8964,26.0407,3
standing,93.0,32.5625,-8.94696,2.91658,2.85976,-0.0307623,0.0464573,-0.00618455,32.0311,-13.5834,-9.47013,35.75,0.217972,9.55832,1.5253,0.0120479,-0.0161979,-0.0219529,-5.00321,-28.0478,-8.12192,33.5,9.74346,-0.0511168,-1.38235,0.0685693,-0.0267032,0.0113874,-6.48056,-2.46505,23.6158,3
walking,120.0,33.1875,-11.073,1.52917,2.8326,-2.70522,-0.820699,4.35789,95.3465,-15.6891,-12.8797,37.25,-0.393747,6.6736,-2.1549,0.442258,0.199639,-0.685122,-5.50308,-75.7167,49.7855,34.6875,9.88461,1.06388,-3.20153,-0.270193,0.157335,-0.444666,-78.8772,-61.1048,3.90164,1
transient activities,95.0,35.1875,-10.1527,2.28296,3.07476,-0.440923,0.65149,-0.871894,45.4379,6.77192,-2.85345,37.75,-0.810448,12.3954,-2.60698,0.478472,-0.062124,0.33134,4.11146,-42.0381,17.7432,34.3125,7.36032,-2.98415,-3.04793,-0.750277,-0.740241,-1.77223,-20.6846,-19.2787,19.0869,5
sitting,92.0,32.5625,-7.80509,4.13156,3.95042,0.0180288,0.0203185,-0.0147471,-1.66572,-49.4595,-29.3762,34.25,1.1417,9.77453,0.534582,-0.0343588,-0.00146142,0.00946505,11.9909,-62.964,-39.9041,32.9375,9.00272,1.03747,-3.94361,-0.00351143,-0.0399183,-0.019648,-85.2221,37.925,15.9024,1
transient activities,106.0,28.875,-5.76656,3.42501,7.33174,0.900831,-0.119898,0.00646138,47.237,-25.7328,-31.3998,34.125,0.930339,7.65695,-6.43213,0.0366858,-0.0428393,-0.00266115,-8.32436,-26.1336,46.4723,32.75,9.67008,1.91561,-0.391975,0.0649262,-0.00784529,0.0147056,-32.3727,-18.8426,12.9465,4
rope jumping,178.0,28.5,-10.2,3.09452,0.454177,-2.22956,0.498134,-0.381299,45.6305,-12.0715,6.24525,32.1875,0.419151,10.2313,-4.62988,-0.0962951,0.071953,0.0198093,-19.5058,-35.8045,13.2213,30.3125,9.90201,-0.462247,-2.30432,0.0624856,-0.00886171,-0.223207,-36.9096,0.437978,35.5309,2
transient activities,123.0,28.875,-0.14606,6.24752,5.44355,-0.0907433,-0.423702,-0.214333,14.8025,-19.7786,-26.1209,34.25,1.18334,9.81284,0.651375,0.00695941,0.0179062,0.0261787,5.78966,-25.4552,9.90548,32.75,9.44215,0.228209,-2.81498,0.00936552,0.0171764,-0.0316825,-25.6674,0.253816,9.68579,4
transient activities,153.0,34.125,-7.51587,-6.32804,1.37289,0.115706,-0.208654,0.0794086,28.2279,18.4891,0.259916,38.0,-1.21977,10.969,-2.14511,0.0881721,0.222358,-0.0486378,5.22371,-22.993,18.4888,34.0625,9.20873,0.0147529,-4.39822,-0.0506045,-0.00590643,0.106585,-8.24297,32.4346,-3.05514,8
running,157.0,30.9375,-31.81,45.7886,7.87636,3.44775,-3.60638,-6.85537,31.146,-35.0359,-38.1605,34.0625,1.59112,19.7172,-4.52332,0.423053,-1.99434,0.281839,20.7294,-52.9869,10.1312,33.25,10.9385,1.37039,-4.35031,0.302119,0.78106,-0.672057,-45.6396,-42.5827,-25.632,1
vacuum cleaning,99.0,34.75,-9.73139,-2.01916,-2.40811,-1.20497,1.91862,1.83712,45.8911,13.3212,-8.2746,38.25,1.54499,2.54972,-9.65696,-0.00512706,0.227842,-0.253825,10.5861,-24.114,37.8501,34.75,9.09061,2.0599,-3.67893,-0.0402813,0.0642811,-0.0471262,-2.25022,-9.7337,31.3382,8
transient activities,102.0,33.1875,-6.95719,1.61017,2.77851,0.97597,-0.0102074,0.143844,27.4588,-11.4302,-54.7602,34.8125,1.17685,8.93711,-0.778571,0.254141,-0.0621658,0.31329,40.2571,-51.5426,0.868397,33.5625,13.4512,0.847983,-2.73913,0.783607,-2.62306,3.85908,-63.8472,46.1168,-1.63788,1
ironing,95.0,33.25,3.6882,6.32507,0.535849,-1.139,-0.164704,0.320133,-58.1401,-63.5956,-3.88442,35.0625,-0.0359119,9.52707,-3.20316,-0.0231722,-0.332587,-0.0631956,-19.7414,-60.1729,-9.36955,33.875,9.61246,-1.52797,-1.76042,-0.114388,0.0471764,0.143151,-55.9891,-5.36716,49.9833,1
standing,101.0,33.125,1.88111,9.45609,1.1525,0.164627,-0.104986,0.017382,18.8842,-62.2681,-31.4856,34.75,0.633298,9.50098,-1.17746,0.0347496,-0.00250349,0.0249503,28.7561,-59.7998,17.1082,33.5625,9.72244,-1.76685,-0.484354,-0.00613731,0.00697695,0.022535,-44.4644,37.4852,-60.1883,1
transient activities,81.0,34.25,-5.23519,1.9335,2.26439,1.72,0.214897,0.668036,31.0652,14.9825,-6.4174,37.5,0.348405,5.40471,-0.123842,0.158534,0.099877,0.282595,-2.12367,-26.0785,21.8393,33.1875,4.75469,-4.26459,-2.33351,1.69705,-2.26445,4.04051,-29.3255,-16.3492,-6.76034,7
sitting,79.0,32.9375,-2.80886,5.60139,7.21475,-0.0553936,-0.0506392,0.00623565,9.94956,-20.7589,-23.743,35.0625,0.887069,8.8951,-1.5581,0.231121,0.0793682,-0.0220385,2.90331,-24.6984,4.66394,33.875,9.66379,1.76534,-0.584055,0.0171882,-0.0122054,0.0523506,-6.13648,-5.83394,21.9591,4
sitting,72.0,34.375,-2.18785,-9.57008,-0.0758566,0.014969,0.0390278,-0.00164913,7.37311,24.4337,-12.0697,37.625,0.290096,9.58603,0.0938365,0.037187,-0.0333043,0.0101972,6.50904,-24.1778,-3.63319,34.0,9.16512,2.61924,-2.48536,-0.0184889,0.0211257,0.0131823,-19.5742,15.8312,25.1489,8
descending stairs,131.0,33.8125,-3.01891,8.23884,4.97044,0.312538,0.204572,0.0786071,22.6918,-8.66379,-53.75,36.6875,-1.3465,9.31075,-2.41306,0.0439019,0.134837,-0.165106,23.8836,-46.4281,-22.0501,34.9375,9.98112,-0.295212,0.435316,-0.0813836,-0.110246,0.0527472,-20.2789,28.6219,20.5945,1
transient activities,102.0,29.9375,-7.32358,6.21807,4.33546,-0.687468,-0.291578,1.81264,34.1125,-37.071,-33.5354,35.125,0.793146,9.84961,0.334419,0.0185963,0.124986,0.00628808,-0.773557,-39.888,-15.862,33.0625,9.58869,1.0921,-1.77692,-0.000564512,0.0431136,0.0733038,-94.2519,-1.78826,34.4093,4
lying,73.0,32.75,5.30877,0.537714,8.16166,0.00163302,-0.0206909,-0.0355038,18.1267,6.70814,-50.6974,34.75,-0.74605,1.48304,9.62676,0.0255965,-0.0130864,-0.0136631,41.0803,5.39403,-27.1083,33.4375,2.30848,-9.40016,0.760442,0.0318609,-0.000459445,-0.0113075,-21.0313,16.6933,-12.7264,4
vacuum cleaning,103.0,34.5,-11.9796,-0.935203,2.25002,-0.371138,0.469428,0.142569,32.4454,-22.2807,-20.4471,38.0,-0.424404,4.996,-10.7848,0.162907,0.230948,0.0106708,5.19498,-18.4475,28.9417,35.25,9.46865,1.49199,0.496148,1.05504,-0.148879,0.160145,2.90736,5.23673,-8.43751,2
walking,119.0,32.75,-16.0788,-2.26183,3.03982,0.713331,2.58344,3.17213,38.151,7.50851,-39.1944,37.3125,3.05967,13.6674,-1.96019,0.01218,0.130177,0.0634711,-12.753,-36.2267,-11.172,32.9375,4.69077,-13.1548,-1.58438,0.357899,1.04015,1.82923,-39.666,22.935,-1.31084,8
walking,124.0,32.875,-15.7901,-0.838194,1.26892,0.344828,-0.645597,-3.37938,46.9428,-15.7865,-27.2601,37.375,-1.26459,11.4568,-2.41855,0.216218,0.486223,0.176089,-17.4314,-40.0667,2.77665,33.0,9.29026,-3.14386,-3.56741,0.978031,0.0125456,1.17055,-47.6651,-4.70772,7.06118,8
vacuum cleaning,108.0,34.625,-4.17989,3.30636,-0.264597,0.483553,-0.839528,-2.35437,36.0847,-5.74244,21.5193,38.1875,1.36324,1.41463,-10.5471,0.0711453,-0.548421,-0.0807607,5.20675,12.9657,40.7042,34.625,10.2041,0.268265,-3.65639,-0.113538,-0.029532,0.400812,-19.9776,14.2921,20.3269,8
lying,82.0,31.75,7.10936,1.41953,6.5307,0.0165846,0.00852738,-0.0168178,-2.31035,23.8202,-55.3123,33.5625,0.695188,0.0845618,9.54125,-0.0301294,-0.0145007,-0.0281032,45.869,13.0596,-45.6614,32.1875,-0.00656156,-7.04131,-7.38175,0.0123748,0.00198035,-0.00109529,-19.6492,44.415,0.829387,1
cycling,130.0,34.0,-6.15812,6.96739,12.7406,0.252022,-0.0691636,0.287071,3.90727,-16.9797,-50.3938,37.3125,-0.854117,10.5792,-3.91838,0.229566,0.406872,-0.141752,-2.1403,-41.9327,14.174,34.0625,8.6297,3.81541,-4.42775,0.40443,-0.340905,-1.1132,-44.4253,-5.98778,20.6899,5
ironing,102.0,33.25,-3.34857,7.63813,5.39089,0.0602785,-0.13153,0.0912016,15.6099,-18.8765,-48.4554,34.9375,-1.98657,9.11766,-3.43077,0.0501818,-0.0017883,0.0653496,17.8853,-52.3766,-9.52357,33.75,9.68177,0.353115,0.312454,-0.00626426,-0.0737894,-0.0057936,-59.7103,-18.9668,36.9957,1
transient activities,107.0,32.875,-8.84885,3.40421,2.32077,-1.14104,0.619299,0.606122,37.9011,-7.85915,-28.8646,35.0,2.11177,10.36,-1.50196,-0.178909,1.35659,0.467024,15.4715,-35.3476,1.99176,33.75,11.3437,2.22291,-2.11325,-0.108444,-0.0102004,0.472691,-35.1561,14.537,21.2661,4
transient activities,136.0,33.75,-7.97257,4.28012,3.44707,0.0734581,-0.0270437,-0.00886733,25.5562,-29.2835,-11.764,36.4375,0.312121,9.83693,-1.76519,-0.0694718,0.0282782,-0.00309715,-21.0892,-36.514,-1.14533,34.8125,9.3279,-3.53511,-2.17537,0.0639864,-0.0110082,0.0193999,-39.3047,9.36024,17.8215,1
vacuum cleaning,113.0,34.0,-7.15645,3.82397,-0.15698,-0.508862,0.473527,-0.133173,34.533,-4.94131,-17.1959,36.75,4.03906,7.40626,-3.045,-0.153744,-0.404651,-0.21681,5.21505,-26.866,22.5999,35.1875,9.59248,-0.0771311,-2.73437,-0.0402222,-0.169245,0.209062,5.29217,-20.5694,-22.8025,6
ascending stairs,122.0,31.875,-13.52,9.58919,2.49934,-0.926032,-0.159544,3.39975,17.128,-26.8647,-26.4547,36.75,1.19944,10.1202,-3.99585,0.493992,0.199752,-0.0621993,0.486878,-32.2433,-9.27006,34.4375,5.14366,3.01315,-5.80916,-0.318785,-0.061994,-0.661116,-43.4215,5.00021,-0.386831,3
ironing,72.9090909090909,33.75,-2.28462,1.74289,8.96755,-0.17734,-0.0855893,0.389561,-4.51127,0.221343,-52.4495,36.625,0.369501,9.1927,-2.34287,-0.0997089,0.235508,0.141111,-1.3178,-37.167,-8.83106,32.75,9.1374,-0.366065,-4.20365,0.0746842,-0.100207,-0.00188962,-25.276,9.75705,51.8003,7
running,152.0,28.8125,-8.1437,-6.63338,-3.60035,0.0877997,0.10985,0.152831,28.4093,-29.5636,-19.785,32.125,-3.23556,-1.80073,1.73198,-0.459803,-0.0547038,-0.168674,5.78027,-25.6331,30.5344,31.625,14.6321,-11.2471,-1.03119,1.30256,1.93795,-3.37942,-27.5913,-22.0101,-2.41353,2
ironing,75.0,33.625,-2.74121,4.98308,6.02474,-2.49157,0.205198,0.225836,-17.3567,-38.0436,-29.2258,36.5,1.30944,9.48784,-2.79145,-0.0504378,-0.0838468,-0.00978226,-10.5252,-36.3147,-5.65686,32.75,9.05837,-0.744634,-4.27929,-0.103821,0.01253,0.0601414,-26.1827,-1.65601,51.8103,7
ascending stairs,131.0,32.3125,-6.21282,5.74788,-0.572696,7.66552,-0.558204,-0.228509,32.7261,-22.0436,-23.2253,36.9375,-0.321255,4.8286,-2.10887,0.216449,-0.905237,0.666146,11.8669,-31.8229,0.954567,34.9375,-1.37543,-4.65694,-0.734587,1.05476,-0.584094,-0.0952258,-22.8169,-5.42694,7.37905,2
cycling,128.0,31.75,-1.04761,4.73242,9.16843,-0.347364,0.131369,-0.179712,46.8469,-3.69861,-58.0236,36.4375,-0.891542,5.20964,-7.27033,-1.00616,-0.0291594,0.504594,25.3826,-10.2019,55.4909,33.875,7.58421,4.05545,-0.465235,-0.258125,-0.0655468,-0.85241,-29.8455,-49.9806,-25.5925,1
transient activities,130.0,33.75,1.3672,9.59592,-0.626086,0.0552094,-0.0319125,-0.0819598,-18.0215,-32.4613,8.83758,36.4375,0.423879,9.72309,-1.84023,0.0962817,-0.00532937,-0.0233836,-22.1545,-35.8359,1.90387,34.8125,9.52736,-2.43713,-1.9486,0.00257127,-0.0484174,-0.174896,-40.7076,5.65573,18.041,1
descending stairs,95.0,32.125,-0.405616,4.78477,11.3332,0.143148,-1.23462,-2.30222,9.14873,-31.4576,-39.4902,36.4375,-1.25707,11.8698,2.96246,0.137953,-1.8813,0.0187899,-6.38049,-30.4419,-10.1073,34.0625,21.8517,-3.29561,-3.90072,-4.04632,-1.0711,-1.8683,-35.7112,13.2471,39.8662,3
transient activities,105.0,34.4375,-8.67943,-1.3936,0.56907,0.586416,-0.0857096,-1.08783,65.1689,-15.6394,-22.5735,38.125,0.0976337,9.73672,0.0124181,-0.13448,-0.14151,-0.213432,-19.4611,-45.8154,21.8308,34.375,12.1617,19.3585,-4.21786,0.471388,-0.159119,2.26335,-66.8975,9.98309,-7.91588,8
cycling,124.0,31.9375,-1.71536,5.25147,7.23231,0.471883,-0.237815,0.00791533,45.9193,-23.7735,-49.7811,36.625,1.12276,5.74897,-10.0622,0.105714,-0.068165,0.415009,5.37286,-23.1134,61.9116,33.9375,6.07958,0.921656,-1.46455,-0.0923537,-0.456689,1.55247,-49.6642,-37.7904,-1.65865,1
Nordic walking,124.0,29.6875,-9.98099,6.67037,1.67699,0.787519,0.161251,-2.58549,17.391,-42.1238,-16.9356,34.9375,-0.0175737,13.2855,-4.22179,-0.284124,0.624471,-0.166539,-3.17872,-40.7084,-9.81093,33.0625,25.6019,-9.4818,-2.43465,-3.40074,-0.0613252,-3.7028,-40.2649,-14.0395,23.8342,4
walking,101.0,32.8125,-8.48036,0.804074,0.410688,0.190526,-0.722375,0.713061,18.6717,-43.5588,-19.1605,37.625,1.88875,9.77745,1.32253,-0.0903089,-0.275728,-0.0466442,-9.05192,-37.6483,-15.6503,32.0,13.2585,0.84009,-1.62196,-1.18159,0.748426,-1.91302,-37.5734,4.40491,37.1545,7
running,127.0,32.5,15.746,4.41606,5.53383,0.164891,-0.259118,0.217967,18.7179,-41.5615,1.82444,36.75,0.454929,-2.88495,-0.908107,0.337006,0.0115035,0.844901,-10.045,-36.972,-10.7259,32.0,15.876,38.3847,1.72213,-1.0105,-1.07687,3.48917,-28.6563,28.5467,35.8814,7
transient activities,116.0,32.375,-7.06213,5.68262,-4.35696,0.0194415,-0.00911537,-0.021528,8.34197,-35.043,13.4856,35.0625,0.0783175,9.92925,0.630977,0.125494,0.0584326,-0.0474617,-12.4541,-28.4978,-13.0469,33.1875,9.39575,2.71943,-0.97862,0.0173762,-0.00289384,0.0146269,-23.2393,28.5152,29.518,4
cycling,117.0,29.6875,-8.19708,-4.63711,3.16589,-0.518193,-0.489175,0.467339,20.0245,21.2516,-48.6898,35.25,-0.85201,7.02749,-11.2638,0.0351597,0.405298,-0.819407,16.5234,-39.7906,20.3549,34.3125,11.2313,-2.45359,-1.23641,0.47167,0.203359,0.144583,-42.8623,19.5025,3.07869,6
vacuum cleaning,136.0,33.625,-13.0189,6.7291,5.557,1.80303,-0.615998,0.508602,15.9114,-32.8747,-2.08681,35.6875,-4.90103,-3.07584,-9.40696,0.0825286,-0.0460615,-0.0356486,6.6012,3.51321,41.7408,34.625,9.37137,-0.0707575,1.31523,1.61386,-0.450756,-0.894422,-20.6521,-20.2266,27.9983,1
ironing,101.0,33.3125,-2.57926,4.55826,5.33583,-0.545719,-0.155238,0.104247,-7.03729,-69.9818,-59.3939,35.1875,0.649653,9.33666,-3.19012,-0.0149248,0.139064,-0.071831,-23.3289,-61.9815,-6.2394,34.0,9.45269,-1.98039,-2.02938,0.0240518,0.0224663,-0.0205659,-56.1496,-9.56148,50.5588,1
transient activities,117.0,31.25,-2.98352,0.0391971,8.77039,-0.482498,-1.96083,0.0919075,10.7941,-17.7864,-77.6679,36.875,-1.29418,9.94221,1.88386,-0.526658,-1.33539,0.207858,16.0611,-46.8475,-20.9435,34.5,11.6814,22.2818,-8.48578,-6.89689,0.461173,4.23172,-31.3829,46.4564,-5.48937,3
ascending stairs,99.0,33.75,-10.5727,3.38339,2.71838,-1.11868,0.947027,-1.39095,49.3303,18.3272,-41.3824,36.8125,1.78433,11.6528,0.191631,-0.0858688,1.54801,0.216576,38.8374,-49.4951,3.64471,35.1875,8.53018,18.9683,-9.46227,0.3905,-0.616983,0.348577,14.3064,-26.8258,-27.3022,6
Nordic walking,127.0,34.75,-2.79093,6.97663,-0.179198,-0.0505094,-0.707611,0.105417,-24.0002,-31.8485,-17.5703,38.5,1.46355,10.2754,2.35867,-0.1109,0.0393076,0.18528,0.982466,-36.7203,-23.7641,34.3125,12.2222,-2.40555,-3.2332,-0.960383,-0.599267,-1.75571,-40.2714,19.029,17.2716,5
standing,99.0,33.0,3.0336,9.40441,0.631118,-0.0400257,0.0300161,0.00987566,-31.8846,-54.2273,29.2457,34.625,0.242655,9.80107,-1.534,-0.00357255,0.00281848,-0.0300533,-32.9715,-54.6645,23.0429,33.375,9.61038,-2.14647,-0.405968,0.0281002,0.0136622,0.00378208,-96.8765,-27.4192,41.1704,1
Nordic walking,128.0,30.1875,-6.38443,2.96947,-1.68203,0.922079,-0.254149,-2.12252,26.8532,-31.7689,-18.9809,35.125,0.391927,11.4582,-6.95762,-0.584108,0.13904,-0.294155,14.2751,-22.4775,33.2417,34.0,17.1857,-7.46907,-5.35048,-2.28782,0.715576,-2.84498,-27.1601,-25.3055,3.73673,2
standing,97.0,35.125,-8.59056,3.90272,3.13119,0.202059,-0.115832,-0.125366,25.9341,-17.5168,-23.5325,37.0625,0.540467,10.0042,0.79399,0.047986,-0.200209,-0.00365394,12.9231,-31.7581,-10.7367,34.3125,9.80855,-0.657161,-1.60946,-0.034061,-0.0182551,0.0734279,-27.3984,21.4869,20.718,5
transient activities,93.0,33.8125,-8.43386,10.1507,-2.35275,1.55469,1.48265,3.89043,3.60392,-37.4492,2.98117,37.25,1.04857,8.12655,-3.75977,-0.351292,-0.528943,0.478793,6.26758,-32.8093,-5.13804,34.6875,9.82946,0.819759,-1.15533,-0.376718,0.416926,0.17665,-40.4055,19.3578,24.0023,2
vacuum cleaning,110.0909090909091,34.0,-5.09781,9.64628,3.549,0.496535,0.377709,-1.38656,23.6048,-20.8458,7.85682,36.75,2.75366,7.48794,-2.72006,-0.017161,-0.782427,-0.454974,-12.9506,-18.4338,-0.135084,35.1875,9.20584,-2.23865,-2.76351,-0.194825,-0.00431558,0.00775322,-0.212556,3.68958,33.5991,6
lying,61.0,31.0625,0.369947,4.56522,8.68989,-0.0547506,-0.0274006,-0.000526144,-5.50772,16.1718,-33.5156,33.875,0.735251,2.11695,9.41921,-0.00311813,0.0110578,-0.0317242,35.7713,4.30551,-32.0742,30.875,-0.919525,-8.61178,-4.98881,0.0112926,0.0200515,0.0124629,-11.8016,29.7684,-6.89403,7
sitting,76.0,31.75,0.579658,8.09965,5.29422,2.17808,-0.110023,-0.0876729,-0.786808,-20.1464,-19.5806,34.625,0.12265,9.12017,3.49976,-0.0033694,-0.0463771,0.00470349,4.26583,-17.2872,-8.94737,32.625,8.92703,-4.00266,-0.401457,-0.00687329,0.0638452,0.0191277,-22.1563,-0.471606,14.7294,3
lying,73.0,32.6875,4.81698,0.465629,8.15454,-0.00290203,0.0285472,0.0236827,19.2668,4.78619,-50.1632,34.6875,-0.36714,1.93291,9.516,0.0260709,0.0360689,0.0225729,40.6034,4.12316,-28.2324,33.375,2.46879,-9.48026,1.14848,-0.0236341,0.0226188,-0.0143881,-21.4016,16.3267,-12.3018,4
sitting,84.0,34.9375,-0.487072,7.32011,6.28154,0.0271795,-0.00581187,0.00207642,6.88057,-25.8046,-20.0317,36.8125,0.521845,9.59476,1.49196,0.00612336,-0.0276294,0.0101642,1.52424,-25.0241,-5.07311,34.125,8.83145,-3.10016,-3.91969,-0.0395882,-0.0245685,0.00166994,-25.3317,2.07133,20.4641,5
transient activities,110.0,29.75,-5.07496,7.71075,3.51739,-0.000881943,0.00330698,-0.0130365,29.3102,-15.705,-14.1017,35.0,-0.0629025,9.85701,1.01586,-0.127162,0.0271394,0.00527595,1.53327,-20.6512,5.90047,33.0625,9.61522,0.904913,-2.1228,-0.00392063,0.0274579,-0.0268946,-37.0192,-9.2406,3.41626,4
transient activities,102.0,33.0,-8.91739,3.20743,1.47368,0.57794,-0.208043,0.0787806,36.8078,-43.711,-15.2888,37.5,0.743477,8.3445,-5.08252,0.12052,-0.411379,0.299189,-10.013,-48.5299,1.58064,35.0625,9.66684,-0.381675,-2.69313,-0.15483,0.114366,-0.147001,-43.8439,28.9053,45.546,2
transient activities,119.0,33.1875,-2.05004,4.45893,3.1888,-0.377588,0.537139,1.61532,2.08144,-37.483,-51.3156,37.6875,1.39134,9.76981,-0.0416937,-0.0526825,0.280883,-0.00510546,14.9231,-38.9194,-16.0403,32.0625,9.73444,-1.14056,-2.80349,0.0262978,-0.0177326,0.0239641,-46.824,-1.13853,9.18748,7
sitting,71.0,34.3125,-1.99952,-9.41043,0.965585,-0.0240134,0.00272682,-0.0192065,7.26236,24.8104,-14.3027,37.625,0.225304,9.58886,0.479863,0.0453293,-0.0224174,0.00127028,5.90215,-25.8313,-4.33304,33.9375,9.19983,2.73387,-2.60148,0.0349602,0.0164868,-0.0119281,-18.0468,16.0125,25.154,8
transient activities,101.0,32.6875,9.45208,6.38955,0.0831461,0.711375,0.0770575,-0.907977,-45.6271,-5.94972,1.10702,37.25,0.57807,9.2163,-4.31393,0.00924453,-0.0180085,0.0542459,-12.308,-46.8403,-3.72275,35.0,9.6634,-1.68426,-1.25726,-0.0136429,-0.0703917,0.0548747,-46.117,29.5741,42.7248,2
transient activities,128.0,32.3125,-4.80837,2.4352,3.57767,2.33331,-0.188366,-0.0263403,49.8953,-12.9463,1.45652,35.625,0.363891,5.06079,-0.858141,0.428311,-0.4783,-0.275138,-14.4015,-40.1989,22.1161,33.5,-0.0269292,0.408338,0.984338,1.58712,-0.358685,1.73584,-27.7568,-11.17,29.69,4
cycling,134.0,28.5625,-10.2477,1.16205,4.92452,0.0171074,0.0464671,0.0838499,38.1131,-9.24114,-37.1243,33.9375,0.501834,7.48552,-4.1548,0.0192367,-0.111447,0.261661,-5.09081,-42.202,5.97674,32.8125,4.3841,9.31808,-0.839429,-0.00998363,-0.102967,-0.0816999,-32.7997,-24.0731,22.0283,4
ironing,101.0,33.375,-4.38738,1.90432,8.20425,1.65131,-0.70134,-1.16649,-16.3537,-20.0444,-67.3129,35.3125,-1.29802,9.19134,-3.34109,0.0344779,-0.658888,0.114526,-8.20493,-56.2164,-7.59565,34.1875,9.75439,-2.18378,-0.597208,0.239093,0.0399013,-0.379833,-57.9853,-1.37763,45.5862,1
running,164.0,30.75,8.01494,1.05058,0.0411427,0.031225,-1.21473,-0.468065,42.0171,-40.3887,-0.9623,33.875,1.54709,0.344867,-1.63452,-0.456551,-1.10111,1.12257,-15.4291,-46.8654,22.5841,33.1875,18.4956,4.76237,-2.40297,0.526747,-2.40577,7.9748,-53.4077,-27.7439,24.7202,1
walking,125.0,31.1875,-12.1862,2.57419,-0.0741545,2.35023,-0.883387,-3.00908,39.1673,16.0515,-10.6212,36.125,-0.206523,9.14712,-3.78583,0.362727,0.0447221,-0.209191,1.69831,-19.8222,33.1771,34.375,27.6975,5.47667,-3.9338,1.37375,-1.13626,6.31814,-39.4657,4.0888,16.405,2
cycling,117.0,32.875,-3.03214,1.60787,5.95479,-0.0610432,-0.00416062,0.117126,53.2573,0.747286,-36.5594,38.0625,0.399293,7.61281,-7.64196,0.439327,0.130982,-0.14047,9.46482,-19.3103,46.6983,32.3125,12.5078,1.28514,-4.41087,-0.250568,0.578525,-1.84757,-32.6623,-29.1613,1.61087,7
lying,91.0,30.9375,6.05787,5.02723,5.96396,-0.0119148,0.0274078,0.0185146,-13.1391,14.7034,-59.1056,32.75,1.0753,1.85178,9.34879,-0.00194638,-0.0355398,-0.0027229,39.7725,10.548,-54.2152,31.3125,-0.66418,-7.76423,-6.68939,-0.0263097,-0.0370437,0.0181304,-14.4468,45.3109,-5.76388,1
transient activities,127.0,33.8125,1.36677,9.46386,1.56813,0.0272704,-0.023367,-0.027735,-19.1596,-35.1455,2.68806,36.5,0.094473,9.68962,-1.38144,0.0231893,-0.00630857,-0.0231127,-21.0875,-37.0997,1.79577,34.875,8.94455,-3.79627,-2.4478,0.0086037,-0.0367666,0.00955976,-38.6301,10.7349,20.5538,1
transient activities,149.9090909090909,30.1875,6.44202,6.75703,0.344717,1.07525,0.321558,0.432433,-21.2059,-52.4635,-29.1848,33.625,-0.207013,9.69135,-1.27074,0.143401,0.519478,0.0810059,30.2063,-50.4617,4.885,33.0,10.4928,-1.81599,0.295642,2.15483,-0.126174,1.03764,-54.9588,5.21306,-27.6453,1
walking,97.0,32.3125,-11.1513,2.48443,-0.712636,-0.723562,-1.71267,2.90605,25.3022,-35.4766,-22.7662,36.625,1.97519,8.30317,0.515744,0.234238,-0.0860025,-0.101317,-5.91053,-36.8656,-11.6848,34.9375,10.2927,2.68677,-2.31985,0.083239,0.16502,-1.43464,-38.7703,13.5762,27.2114,6
standing,93.0,34.1875,-8.56546,4.63715,0.43497,-0.0507579,-0.00824019,-0.00570465,23.8553,-25.238,2.88086,37.5,0.228523,8.91485,-4.51289,0.00592776,7.67093e-05,-0.017302,-8.04938,-25.0746,7.77101,34.875,9.76917,-1.45491,-1.52773,0.0309825,-0.0280228,-0.00841733,-18.9579,-16.6411,36.0683,2
ironing,82.0,33.0,-6.10979,7.04306,4.31238,0.24505,0.113608,0.368084,1.67909,-39.3942,-31.7363,36.3125,-1.47041,9.73164,-1.48737,0.0435735,0.402549,0.266663,3.70907,-33.4664,-9.46798,33.875,9.63211,-0.506992,-1.26489,0.195055,-0.289909,0.128988,-34.2133,23.0868,34.2651,3
Nordic walking,141.0,32.5625,-10.8907,5.59672,-0.372845,-1.17462,1.07968,5.38178,44.968,-8.03874,-50.5265,37.0,1.42283,6.966,-2.58759,0.490447,0.893951,-0.710233,32.0056,-50.8347,26.8533,34.3125,10.1173,-0.346873,-2.65013,-0.186504,-0.0016523,-0.088304,-63.8538,-4.47848,-21.8583,1
walking,101.0,32.8125,-7.53296,1.17617,0.423624,-1.88559,-0.523929,1.37587,27.549,-39.4399,-17.4974,37.625,1.56588,9.47329,0.736851,0.116673,-0.324643,-0.178567,-8.43641,-38.7055,-12.961,31.9375,10.0492,2.01994,-4.17051,-0.561871,0.565625,-1.53499,-35.9819,8.32082,38.5739,7
standing,75.0,32.375,-9.35445,2.63719,0.968721,0.00353613,0.0221511,0.000163532,31.6471,-17.0673,-8.98009,34.9375,1.4304,9.69464,-0.00202081,0.00481099,0.017213,-0.0139755,1.40052,-31.2074,-7.43594,31.875,9.78973,-0.461536,-2.30547,0.0134442,-0.0190247,0.0128898,-1.01083,-6.37845,11.3404,7
cycling,125.0,30.625,-6.99247,-2.22257,6.90906,0.00629697,-0.08753,-0.126174,62.2039,13.8021,-27.9954,34.375,0.25424,9.42738,-1.10665,-0.195196,0.02533,-0.0628064,26.1619,-49.5633,22.7335,31.8125,9.34348,-1.17134,-3.38615,-0.123838,0.0558749,0.0218961,-50.2638,45.0531,28.8365,8
sitting,71.0,34.3125,-2.84678,-5.74173,7.36791,-0.0130153,0.00104112,-0.0266376,9.67243,13.1295,-30.9032,37.625,0.453346,9.77615,0.444665,0.0357516,0.0237021,-0.00829047,5.24715,-25.5496,-3.91619,33.875,9.20184,2.69526,-2.52404,-0.0135844,0.014476,0.0154961,-18.8035,15.6644,25.2936,8
vacuum cleaning,107.0,33.9375,-9.22456,4.42902,-2.19134,0.610489,0.748901,-0.143088,30.122,-34.3578,-6.50996,36.75,1.93597,11.1919,-1.08191,0.148273,0.751197,-0.04411,11.2836,-37.3754,-7.61416,35.1875,9.20752,3.58958,-5.11504,0.86086,-0.598334,0.750161,-39.0778,21.666,14.8616,6
cycling,115.0,32.5625,-5.74927,0.116129,10.6916,0.95561,-0.0979103,0.0705564,26.7198,22.1355,-48.315,37.3125,-0.0367802,9.34747,-1.9248,0.126678,0.814587,-0.472366,20.7382,-41.3439,0.511405,32.0625,9.7418,1.32901,-3.01169,0.409937,0.554152,-0.63609,-48.0978,27.0491,28.7231,7
transient activities,80.0,34.0625,-8.20249,3.25852,3.56254,-0.0737211,-0.0184837,0.0613482,25.7577,-30.787,-25.4202,37.0625,1.80543,9.54154,-0.188334,-0.0309154,-0.0730447,0.0204939,-21.0588,-25.2259,-1.84499,32.9375,9.14807,0.201215,-3.93693,0.00639978,0.000686195,0.00911745,-11.2748,-34.9005,32.4703,7
transient activities,114.0,33.5625,-10.5167,4.20254,5.25662,0.0310827,0.95512,-2.84799,32.1614,-66.2011,2.92286,37.125,-2.07203,9.37047,-5.05942,-0.218621,-0.00464701,0.0930727,-36.655,-55.2845,-17.8323,34.875,16.7579,-1.24208,-9.71555,-0.791449,1.23641,-3.20797,-58.8718,-41.1153,32.6679,1
transient activities,107.0,32.3125,0.599602,-10.3697,2.04691,-0.0979304,-0.281737,-0.0970383,4.2078,30.5674,-0.158375,37.0,0.327963,9.92453,0.0547014,-0.0105654,0.0261889,-0.117378,18.6968,-26.5672,1.25933,32.4375,9.25997,-0.29373,-3.85553,-0.0635464,0.0286694,-0.036493,-23.165,13.8396,31.2373,8
transient activities,119.0,31.125,-0.402933,7.20806,6.55259,-0.141579,0.134333,0.0963122,-4.48743,-26.2488,-19.1411,36.9375,-0.260537,9.78075,0.780205,-0.0547673,0.0121408,-0.0473949,-6.58087,-25.1362,9.14156,34.5625,9.74347,-0.480098,0.00954074,0.00681537,-0.0377231,-0.0085719,-35.6376,15.7526,25.2864,3
standing,94.0,34.4375,-0.314591,-8.17647,4.64296,-0.0112939,-0.141879,-0.0847071,4.9622,23.4305,-34.2369,37.5625,-0.997197,9.81781,0.340808,-0.108407,-0.0564958,-0.0619763,3.99685,-32.4638,-7.55174,34.0625,9.59351,-0.723882,-2.57599,0.0181486,-0.0553031,-0.0181598,-2.4946,19.3375,18.6806,8
cycling,126.0,29.125,-3.41972,5.1598,8.20776,0.00492792,0.208093,0.0396082,44.0257,-4.8956,-36.8258,33.4375,-0.287003,0.748588,-9.60685,-0.217684,-0.00428319,-0.129902,15.102,7.26548,40.2814,32.4375,4.01354,7.4941,-0.368835,-0.103148,-0.287302,2.68444,-31.1238,-18.6674,-3.83433,2
sitting,89.0,32.4375,1.6318,7.87252,6.27293,0.382843,-0.220165,0.0374037,-37.7615,-10.0817,-51.5684,34.125,0.970146,9.33662,2.50767,-0.357297,0.229868,0.0449367,11.516,-57.8535,-47.1365,32.8125,8.3921,2.79392,-4.69397,0.0019691,0.00529537,-0.0987711,-79.3095,24.2833,30.6857,1
standing,88.0,33.6875,-7.91256,3.45221,4.259,0.167193,-0.101319,-0.0626835,23.7709,-24.3593,-36.0849,36.0625,0.786829,9.6224,0.141438,-0.0221999,-0.177764,0.0463583,-6.68828,-31.1571,-16.6578,34.8125,9.76308,-0.0841828,-1.99937,0.00870179,-0.00820904,0.0200684,-37.1924,19.2066,42.2446,6
ironing,89.0,33.9375,-5.37584,3.91765,7.60534,-0.509631,0.386775,-0.00479509,17.1304,-15.0959,-74.4474,36.25,0.0388033,9.53524,-1.96276,0.0118494,0.0869911,0.0175234,-7.01324,-43.1468,-9.25974,35.0,9.22673,0.0855504,-3.78105,0.032738,0.00104416,-0.0191685,-33.224,15.679,48.2196,6
vacuum cleaning,96.0,34.1875,-9.04061,4.03781,-3.34189,0.190831,0.592227,-0.457785,33.7108,-8.62013,-16.9094,37.375,4.71616,6.74485,-5.85721,-0.33382,0.250448,-0.406493,-12.4608,-18.8572,17.3553,33.125,8.94803,-1.42896,-4.08322,0.176228,-0.005931,-0.108658,15.3506,20.9928,8.67137,7
descending stairs,94.0,32.125,-0.855808,5.19592,10.2474,-0.326009,-0.337867,-0.196252,12.443,-10.9531,-41.0428,36.4375,-2.06058,9.97254,0.437203,0.031274,-1.33037,-0.0241099,17.1622,-30.5366,-0.189128,34.0625,19.2822,8.44104,2.17442,-2.26779,-0.0299216,5.12078,-52.928,1.91464,24.9089,3
descending stairs,129.0,33.8125,-4.70833,4.27695,1.72556,0.194032,-0.121112,0.200241,72.4935,-25.0723,-43.2715,36.6875,-0.0102211,4.97956,-1.91012,-0.30713,-0.493508,0.232748,24.4406,-73.3975,4.64397,34.9375,15.6033,1.07851,-4.72515,-1.83516,0.113074,-2.24446,-52.0139,-49.2906,6.65486,1
sitting,94.0,33.8125,-0.325796,8.39047,3.0859,0.00196613,-0.000362921,-0.0264873,-1.62032,-28.0659,-9.24083,37.3125,1.35772,9.29311,-3.71924,0.0391639,0.0174427,0.0139753,-2.04733,-21.1201,5.53844,34.6875,9.40009,-0.872965,-2.76999,0.303588,-0.259697,-0.0862832,-12.6389,-3.44732,22.5417,2
ascending stairs,122.0,33.8125,-1.80158,10.4562,3.67262,-0.438148,0.460076,0.0595034,-15.6571,-29.7406,-35.7157,36.0625,-2.45503,9.54802,-1.27228,-0.0468553,0.237845,-0.125981,-8.74915,-45.8462,-15.4349,34.8125,9.58269,0.778953,-0.617355,0.0742908,0.0656175,-0.210662,-20.6259,-1.33032,50.8512,1
transient activities,91.9090909090909,31.875,-6.63822,-0.971863,7.0641,0.0221951,-0.0108306,0.0051917,23.1084,-4.5571,-28.0187,36.1875,-0.205665,9.6339,1.36249,-0.00503724,-0.000869418,-0.0129401,2.68769,-34.1363,-5.80704,33.75,7.18139,5.57057,-4.37632,0.0771456,-0.0499456,-0.00456274,-50.8792,1.28766,41.9669,3
vacuum cleaning,96.0,33.1875,-3.23548,7.03979,2.23863,-0.641899,0.368496,0.383111,37.5699,-5.33109,-24.6051,36.8125,-0.183975,8.88006,-4.28792,0.11066,-0.160922,0.385529,32.1029,-24.9861,10.3416,34.125,9.71824,0.184404,-2.31022,0.135407,0.19968,-0.30456,-40.2269,-1.99358,-5.68627,3
transient activities,90.0,31.5625,-11.2811,3.81649,-0.372688,0.725212,0.044363,-1.72941,14.4199,-36.8731,-31.3922,34.1875,-2.59063,10.4379,-3.36856,0.0441414,-0.253762,-0.339131,-3.1804,-31.7643,-23.7893,32.1875,17.205,-5.85624,-7.59849,-1.1003,-0.606746,-4.33205,-61.3135,8.06738,24.1766,3
ironing,89.0,34.0,-8.64637,4.8172,3.51214,-0.449682,-0.0830458,-0.0367264,25.9235,-36.2434,-6.62125,36.375,-0.0138815,9.64495,-2.46744,0.342956,-0.0655884,-0.0536007,-3.62558,-35.9275,-2.79096,35.0625,10.0529,0.797289,1.4326,0.32543,0.0179736,0.244865,-32.775,14.7336,40.847,6
walking,109.0,30.375,-7.577636666666666,1.85399,2.6272800000000003,1.09526,1.4034833333333334,-1.617473333333333,47.0433,5.688726666666667,-9.805466666666666,35.375,-0.461794,6.45866,-0.567876,0.250738,-0.439014,0.369774,5.56079,-39.1287,20.8389,33.1875,13.2578,-0.137694,-2.77358,1.46246,-0.834831,5.95411,-36.5579,-17.4949,6.2641,4
transient activities,106.0,32.375,0.154048,-9.36976,3.153,-0.0295823,-0.0750775,-0.0167773,4.70552,31.4086,-1.60804,36.9375,0.130229,9.81061,-0.180836,-0.0261771,0.0186957,-0.0446977,18.5614,-26.4335,1.53964,32.4375,9.26015,0.162535,-3.93554,-0.046379,-0.0503221,0.00219828,-24.1705,13.1173,31.2346,8
cycling,116.9090909090909,30.0,-5.49353,0.905989,5.92029,-1.35378,0.290933,0.631181,9.64416,-12.4222,-58.0387,34.875,1.33608,2.82708,-7.7256,0.312017,0.447663,-0.852849,-5.83135,-32.3531,37.949,33.875,10.2221,0.095475,3.56112,-1.41712,0.515244,-0.661744,-54.4736,15.3378,23.4556,2
walking,110.0,31.5625,-11.0682,0.129104,3.26076,-2.0365,1.40713,-0.834916,63.3649,22.9299,-18.2107,35.75,-0.897779,9.49552,-2.7153,0.420587,-1.16866,0.140678,34.4876,-40.7245,32.7525,33.5625,6.75858,2.37152,-2.85581,-1.64856,-0.195079,-0.615449,-13.2228,-45.4978,-14.0452,4
descending stairs,165.0,33.8125,-11.8219,0.438454,3.24842,2.90255,1.69573,-0.837968,35.9417,-9.62651,-44.3353,37.9375,-0.605511,10.4789,-1.93878,-0.257845,-0.312046,0.191128,-24.4486,-40.578,-0.653372,33.8125,10.2668,0.271324,-4.08025,-0.180145,0.610383,0.299506,-25.0644,-30.2661,17.3822,8
transient activities,107.0,34.4375,-0.17323,8.91009,1.93181,-0.339763,0.210171,-0.0876594,22.8996,-44.6522,-17.7189,38.0625,0.995228,9.72998,-0.552113,-0.011345,0.0629061,-0.0753468,11.1932,-48.1006,15.5708,33.625,9.70825,-0.0408375,-2.61764,0.152336,-0.125414,0.0264369,-47.3481,-6.51968,9.19188,5
transient activities,92.0,34.25,-6.43374,4.73831,0.889921,-0.0949383,0.333427,-0.260972,34.8384,-14.6311,-8.21393,37.5,0.145939,8.83577,0.442152,0.235184,0.771826,-0.111237,-5.60521,-32.2511,4.50662,33.1875,13.1416,0.608039,-5.67362,2.15332,-1.81544,5.07944,-14.067,6.43622,32.1289,7
transient activities,87.0,32.9375,-5.25705,4.62794,6.52708,-0.0230923,0.0297358,-0.0408837,37.001,-42.2061,-58.5754,34.875,0.881055,9.64636,-1.8317,0.0203446,-0.0279997,-0.0421763,-8.60655,-40.1219,-9.147,34.0625,9.07095,-0.444098,-3.89513,-0.00350724,-0.0174612,0.0254637,-33.5179,26.7498,42.8161,6
transient activities,104.0,32.9375,-8.5501,2.77548,0.172068,-0.0168249,-0.314862,0.31323,42.1838,-40.689,-3.74493,37.4375,0.252411,7.85785,-4.89623,0.273428,-0.227864,-0.0276796,-14.6593,-46.2904,5.8034,35.0625,9.77689,-1.87545,-1.17773,0.0888564,-0.020628,0.179286,-45.4025,27.7564,44.8038,2
transient activities,134.0,33.125,-8.34937,2.17102,0.638963,0.0435557,-0.586122,1.58373,41.6975,-22.5603,1.7939,36.6875,1.48614,4.82663,-1.53403,-0.500809,-0.422793,0.068527,-16.518,-39.7288,17.3045,34.9375,9.7768,1.70974,-3.16805,-0.448639,-0.32587,0.935964,-40.5452,5.67496,24.6614,6
transient activities,103.0,30.125,2.08944,8.72159,4.04466,-0.0540439,-0.0058816,-0.00901381,15.7263,-68.464,-9.29627,31.9375,0.196981,9.53606,-1.76629,0.0278866,0.0213789,-0.0147446,0.618697,-49.1743,45.3788,30.4375,9.73753,-1.61916,0.0165488,0.0525627,-0.0190697,-0.0106398,-60.6246,-39.0933,-57.9022,1
transient activities,94.0,35.1875,-9.03591,2.72444,2.51269,0.0884765,0.144001,0.80738,58.2978,23.3319,-7.31059,37.75,2.51978,7.83491,-1.64124,-0.175636,0.0311644,0.107981,-10.2303,-27.8525,30.9583,34.3125,16.692,0.430154,-0.542283,0.563367,-1.15078,-2.22242,-24.1081,-14.7941,41.1954,5
vacuum cleaning,96.0,33.25,-10.3195,6.34111,-1.48293,-2.72716,3.55616,1.99461,33.5885,-14.2544,-48.9587,36.8125,-1.14309,4.63196,-9.28649,0.170118,-0.298127,0.09126,34.3504,-20.6114,24.7232,34.1875,9.70317,2.56309,-0.665781,0.00797754,-0.0294663,0.00647562,-10.0236,12.1869,-15.6843,3
transient activities,129.0,30.0625,2.17931,5.57997,0.746685,-0.201578,0.130222,-1.12291,13.6344,-26.7845,-16.9241,35.0,0.59158,6.68059,-6.20277,0.225951,-0.557037,0.331275,11.0882,-14.1294,24.0113,33.9375,9.16761,0.983374,-2.08928,-0.521354,0.0212146,-0.0606122,-26.9267,-8.57878,6.38881,2
transient activities,140.0,32.0625,-9.73144,2.69775,3.15665,0.616017,-0.121854,0.476462,34.8026,-10.1688,-33.6524,36.5625,1.3655,9.06034,-4.72509,-0.0689602,-0.902725,0.534878,18.5131,-32.482,12.0865,34.625,9.68388,-0.919018,-1.995,0.297388,-0.050429,-0.138691,-46.139,23.6135,0.947942,2
transient activities,106.0,28.875,-4.91322,1.41687,8.39045,-0.322435,0.0617762,-0.0220334,44.3628,-19.3802,-39.8313,34.125,0.965569,7.43039,-6.5082,0.0274707,0.00177594,-0.0179104,-8.84675,-25.3402,46.1821,32.75,8.63169,4.80947,-0.613531,-0.0188094,0.040307,-0.015785,-23.7567,-28.0269,12.9875,4
cycling,130.0,31.3125,-7.45509,0.278209,6.12395,-0.73799,-0.368117,0.179259,-5.16965,-45.8082,-43.6471,35.5,0.695629,7.67642,-9.22436,-0.0619095,0.0865394,0.0646991,-22.808,-54.5072,29.8165,33.625,11.2978,9.22845,0.196767,-0.258162,-0.0092277,-0.90151,-53.7636,-26.406,24.6136,1
rope jumping,174.0,28.4375,-6.75261,2.94308,-13.3876,-0.0379281,5.05597,5.67456,27.7253,-37.0075,-13.2609,32.125,0.600996,2.90827,-1.65999,-1.42256,0.963654,0.124108,-17.8056,-31.028,22.3243,30.3125,40.5441,-77.3791,-21.9266,4.2721,-0.408514,-2.16395,-37.7296,-6.55742,32.7398,2
sitting,82.0,33.0,-2.1796,4.35311,8.19057,0.0316772,0.0285408,0.00157294,8.4352,-16.7095,-27.5702,35.125,0.936226,9.61247,-1.24978,0.0155744,0.0167862,-0.0296205,2.14463,-23.7658,2.96131,33.875,9.88594,1.72659,-0.658715,-0.0138773,-0.0458591,-0.00318849,-6.6365,-6.32398,21.9579,4
walking,114.0,34.625,-10.4937,3.68665,2.75702,-0.664052,0.35472,0.862846,41.6236,-27.281,-11.4318,38.25,3.87622,10.8288,-3.71733,-0.0789813,0.409125,0.012809,-7.15501,-37.8496,-13.3799,34.1875,11.2742,2.62347,-4.62477,-1.92041,-0.691262,-1.57871,-37.7383,27.2786,19.8239,5
cycling,135.0,28.375,-10.0708,-1.2736,12.7098,-0.624628,0.0559873,1.1913,55.0075,-5.16291,-13.299,33.75,-0.00615913,9.09361,-6.02784,0.51387,-0.77531,0.537622,24.2638,-28.7483,40.3687,32.75,10.1781,0.966287,-0.76677,-0.684344,0.149252,-0.103954,-43.9502,-12.236,5.52283,4
ascending stairs,130.0,34.0625,-9.56346,2.82298,0.349166,0.0329506,0.386634,1.23646,46.5798,-28.0299,6.4103,37.6875,1.97553,7.26971,-1.95903,0.0968533,0.757433,-0.104224,-15.3443,-43.1358,27.3434,32.875,9.59792,1.18684,-4.09279,-0.48286,0.11834,0.663544,-36.2605,-24.7757,30.8105,7
transient activities,116.0,33.5,-8.91611,2.11922,2.82443,-2.05432,0.531328,1.83807,70.3857,-28.5928,20.0183,37.125,-0.174919,8.71147,-1.38314,0.436564,0.952709,-0.288056,-42.2638,-44.7074,18.9928,34.8125,14.1729,7.11472,-3.54241,-1.00529,-1.98199,4.15185,-61.9316,-2.10532,69.6238,1
transient activities,143.0,30.3125,-8.97557,3.96126,5.08808,0.294273,0.667334,-0.708866,94.2642,-3.02625,-19.5588,33.9375,2.97689,8.43814,-6.86225,0.095474,-0.178091,0.0705625,-21.8636,-73.574,58.4883,33.1875,11.2858,3.79889,-4.439,1.34095,-0.0719893,-2.23311,-68.1516,-11.0307,18.2113,1
walking,112.0,30.625,-11.7076,3.09865,3.81847,1.04308,-1.35725,1.51841,48.2713,23.9873,-13.0685,35.4375,4.37899,9.54069,-4.63334,0.0710748,0.998696,0.334236,2.43787,-44.3082,27.6147,33.3125,10.7434,2.56938,-2.23732,-0.873469,0.0653849,-1.20492,-53.6935,-7.00335,-0.190799,4
transient activities,143.0,27.9375,-10.3034,3.50472,-0.433965,-1.39767,-0.70441,0.0829125,39.302,2.50629,-5.17733,33.1875,0.159193,9.80842,-0.490072,0.139269,-0.200148,-0.136619,2.82122,-22.6433,15.509,33.875,9.43449,-2.51814,-1.25444,-0.94979,-0.163108,-0.0398362,-31.2936,4.25333,4.69723,6
transient activities,94.0,33.875,-11.6613,2.27707,5.32294,-0.0276393,1.34623,-5.75989,32.0495,-9.96087,-54.334,37.25,0.0502483,11.2688,-1.73586,0.469065,0.257887,-0.0265837,25.173,-42.6822,3.47078,34.6875,15.681,21.0316,2.09795,0.522436,-1.18562,3.32597,-77.5866,45.9786,3.7955,2
standing,71.0,32.875,-9.3081,2.52543,1.2392,-0.0262913,0.0167803,0.0363669,31.111,-16.2918,-5.57167,35.4375,1.06146,9.84037,-0.89976,0.00161456,0.00464884,0.0315896,-2.68345,-30.1588,-2.81716,32.25,9.11321,0.695044,-3.94035,0.0259536,-0.0485754,-0.0448593,5.12037,-6.1663,12.3545,7
cycling,124.0,32.0,-1.22677,8.9866,5.30266,0.0775678,0.0364938,0.137796,5.19176,-54.2914,-14.5778,36.6875,3.46361,7.42732,-5.76596,0.20602,-0.322779,0.200639,-35.4153,-40.756,26.2116,34.0,9.61874,2.42494,-2.28655,-0.0236283,0.212203,-0.346611,-38.4628,-8.91298,20.8379,1
cycling,116.0,30.0,-6.60496,2.31183,5.16764,1.26496,1.42453,-1.04024,18.132,-16.4842,-51.236,34.875,-0.786507,2.98695,-7.37736,0.281698,-0.0582768,-0.575416,-1.02501,-32.4626,32.3832,33.875,9.47825,1.64129,0.804037,-0.235511,-0.269267,0.655833,-65.9259,14.8711,5.72012,2
transient activities,118.0,28.25,0.950545,7.51469,-4.58951,0.119217,0.512909,-0.437884,-1.61813,-19.845,28.4596,31.875,1.04191,9.06581,-4.07271,0.00654199,-0.00805956,-0.0545027,-19.0036,-33.5663,11.0255,30.125,9.64276,-0.993754,-2.11073,0.0366726,-0.0349265,-0.0257973,-36.3213,-1.35256,35.8783,2
sitting,78.0,34.9375,-0.00436807,7.42779,6.019,0.0338382,-0.0412203,-0.0123492,3.55213,-22.5303,-28.5749,36.8125,0.699813,9.29902,2.38673,0.0862035,0.0405061,-0.090227,5.5175,-22.7187,-7.31448,34.125,9.2817,-2.46758,-2.68413,0.032886,0.0276047,0.0299208,-33.5003,-0.592755,26.6791,5
rope jumping,159.0,33.8125,-8.50694,12.489,-8.21182,-1.37848,-3.48853,-0.444567,20.159,-42.8738,9.96587,36.4375,-1.947,12.6928,-3.71272,-0.957093,0.127057,-0.0634861,27.7217,-40.9544,-1.69829,34.0625,12.3626,0.665659,-2.82634,-1.22423,0.85597,2.37081,-46.5945,-10.3156,0.830841,5
vacuum cleaning,97.27272727272728,35.375,-4.52899,7.21736,-0.244532,1.48564,0.421983,-2.37409,-2.35342,-43.4274,-16.494,37.6875,-3.22791,9.43511,-1.63441,0.119325,-0.619738,-0.423198,2.05369,-42.5828,-5.25174,34.375,9.57029,-0.966638,-0.722418,1.00256,-0.614527,-1.28198,-37.8554,20.9429,8.62609,5
lying,73.0,34.8125,0.865587,7.72425,5.99254,-0.204631,0.0074502,0.0245449,-9.35968,6.57424,-32.7934,36.5,0.0843173,1.85488,9.33082,-0.0378161,-0.00364989,-0.00228896,38.922,5.08842,-28.6726,34.0625,-0.533931,-9.18785,-4.47962,-0.0426599,0.0360226,0.0321641,-14.3134,28.0924,-6.47542,5
ironing,101.0,33.3125,-2.93742,7.17932,5.36011,0.95245,-0.0229144,-0.506969,-14.3718,-67.1382,-52.7985,35.1875,0.505699,9.52721,-2.9223,-0.0985197,-0.512483,0.152307,-20.5062,-64.2862,-8.8964,34.0,9.51059,-1.21539,-2.76673,0.0138629,0.145238,0.0955684,-52.5238,-10.9365,53.1138,1
transient activities,118.0,30.8125,-5.23319,8.29656,1.01136,-0.05973,0.0574928,0.0180257,22.6116,-21.0451,-4.46634,35.8125,0.439636,9.33285,-3.85217,0.0657322,-0.0487121,-0.0290685,-0.380184,-21.9363,15.3689,34.25,9.61508,-1.87097,-1.60391,0.0278219,-0.0220132,0.00974869,-25.7845,1.01543,12.0518,2
ironing,87.45454545454545,35.3125,-1.42693,0.294149,8.9468,-1.23294,1.54208,0.767571,-13.0834,-26.0034,-54.6353,37.4375,-1.42661,9.57353,-2.57025,0.174087,-0.201819,-0.166857,-7.52655,-41.845,-2.78451,34.4375,9.77904,-1.0395,-1.26008,-0.128056,0.263872,0.0774018,-43.4089,21.1769,37.6819,5
vacuum cleaning,89.0,35.25,-5.55535,7.99215,4.8563,-0.136768,0.101445,-0.246446,62.701,15.4072,-0.841076,37.6875,4.12067,6.40258,-6.6413,0.0412645,0.133591,0.0257443,1.19022,-3.65307,42.0397,34.3125,6.90797,5.90711,-3.53224,-0.0994708,-0.0741769,-0.117901,12.5886,-31.2452,16.6648,5
transient activities,149.0,33.0625,-9.23045,0.801568,-0.524236,-1.84941,2.32672,-3.63379,38.351,-27.2372,-21.399,36.625,1.03929,4.19948,0.163639,0.289343,-0.362521,0.224391,-5.01278,-43.2245,-5.57927,34.9375,2.346273333333333,-0.7269336666666668,-1.299653333333333,1.10225,-0.8042873333333334,3.950763333333333,-43.98916666666667,-17.582233333333335,11.013066666666669,6
cycling,135.0,28.4375,-6.52035,1.37647,6.71156,-0.0471458,-0.287041,0.610369,52.8603,11.3272,-21.1374,33.8125,-0.667079,5.77243,-7.46169,-0.760929,0.566472,-0.529146,29.1236,-18.3444,32.7292,32.75,9.82151,-0.291372,0.086349,0.127078,0.00376396,-0.125239,-34.4386,-5.41716,-9.76949,4
Nordic walking,140.0,32.1875,-10.5749,8.37342,4.89529,-1.39045,0.854622,2.42538,12.285,-54.8542,-28.2054,36.8125,1.26722,9.5159,-4.22498,-0.22485,0.0934358,-0.552416,0.0437945,-55.9202,-21.1988,34.0,10.9523,0.415718,-3.68822,-0.885903,-0.108143,-0.928509,-54.305,33.6809,20.8029,1
transient activities,104.0,32.625,2.83934,8.82789,3.86309,0.0663744,0.532278,-0.429593,19.3653,-26.6357,-54.3685,37.0625,-0.445448,9.46407,-1.58409,-0.063031,-0.261368,0.0417778,40.1187,-44.3832,0.50823,34.3125,9.61994,0.322451,-0.536961,-0.0665234,-0.0754167,0.0893489,-53.7274,33.9626,-19.0555,1
descending stairs,129.0,34.4375,-5.69232,2.29648,4.25767,1.57385,-0.577831,-1.42673,69.8013,-28.2549,38.5165,38.0,-2.04254,8.7173,-1.417,-0.0167301,-1.3696,-0.0683758,-35.8871,-40.4287,13.5076,33.625,11.7719,1.40503,-9.24285,-1.97014,-1.07448,-2.41428,41.9944,33.3481,64.9163,5
descending stairs,114.27272727272728,32.6875,-4.96135,1.02608,7.08248,1.04787,-0.351565,-0.50714,60.0819,-29.7885,-60.0098,35.5625,-4.14269,9.14567,-0.333528,0.210955,-2.17061,0.366892,-17.7459,-59.3979,0.76916,33.5,8.64789,-0.50353,-5.59704,-1.12815,0.0638276,0.556565,47.6743,48.7399,54.1392,4
ascending stairs,152.0,33.625,-8.9054,6.61039,4.38742,-0.24445,-0.038655,-0.284128,22.5577,-22.6653,-12.6022,36.8125,1.21514,9.58551,0.459085,0.0786616,-0.290021,-0.120581,-7.74096,-23.407,8.67167,35.125,9.44302,-0.874808,-2.57659,-0.0211526,0.0382245,0.078718,-27.075,14.0137,24.1317,6
transient activities,110.0,33.5,1.97071,8.91048,3.8498,0.0295727,0.0189924,-0.00962556,-26.8394,-44.6076,-22.3234,35.5,-0.0381712,9.68583,-2.00337,-0.00162342,0.00423759,-0.0205655,-12.5112,-53.9894,-3.24518,34.375,9.65109,-1.72938,-0.369549,0.0455498,0.000748575,-0.00495822,-31.6431,26.9713,-16.4638,1
ironing,96.0,33.3125,-4.55195,6.40772,2.52895,-2.20722,-0.904052,0.0934694,-44.353,-31.5547,-35.9853,35.125,-0.707656,8.89273,-2.67117,0.0635435,0.248883,-0.305344,-3.4489,-57.4068,-16.9636,33.875,9.65402,-2.22457,-0.173498,-0.704624,0.178017,0.215297,-65.035,-6.00286,38.6629,1
Nordic walking,120.2,29.75,-6.22466,1.14403,2.21375,0.833898,1.10186,-2.26206,48.1575,-16.0767,6.33461,35.0,0.960674,5.02705,0.00464096,0.164399,-0.291212,0.352674,-14.8018,-39.9186,14.9205,33.0625,6.44075,-0.739364,-2.91694,1.76822,-0.0793651,4.62048,-22.8347,-33.8233,27.6061,4
transient activities,93.0,34.375,0.846163,9.79138,-0.442113,-0.0423606,-0.00225048,0.0238443,-58.23,-28.9969,29.2004,36.0,1.24011,5.30648,-8.62598,0.0135285,0.00355781,0.0440902,-16.3526,-30.5835,22.1889,33.875,9.09375,-3.68299,-2.48557,-0.0346522,0.0217219,0.0147209,-32.9817,31.4861,42.6707,5
descending stairs,124.0,34.125,-7.45655,1.28085,3.69584,1.93427,0.81789,-0.126079,38.1659,44.755,-12.3865,38.0,0.902992,4.69281,0.662938,0.363237,0.216304,0.162032,35.4075,-34.6407,-20.7162,34.0625,12.6725,7.59097,-14.2501,-1.54985,0.17184,3.13158,-23.4728,6.33903,58.3349,8
transient activities,92.0,33.1875,-7.95134,2.31487,0.105616,-0.854183,-0.829156,1.92346,61.0398,4.32298,-7.06963,35.125,1.78352,8.75509,0.433361,0.0262777,-0.0928736,-0.106512,12.1664,-37.8375,32.8629,34.25,9.67224,1.71889,-4.2111,-0.702934,-0.192822,-0.939062,-53.29,-44.8099,21.6966,6
Nordic walking,117.0,30.6875,0.25524,-2.55667,1.3996,0.688599,0.0544056,-0.506247,-2.75269,28.3053,-40.9437,33.8125,0.305963,5.06517,-0.23967,-0.035879,0.370903,0.211096,-11.4657,-38.2107,-9.31875,31.8125,8.32772,-0.489615,-2.39747,1.41887,0.192924,0.490432,-43.877,-10.1484,16.1581,8
walking,93.0,31.9375,-8.98057,2.82263,0.819747,1.16376,1.50762,-2.70506,53.3172,-7.43202,-15.5128,36.5625,-0.913464,9.76414,-1.98076,0.470105,-0.828327,-0.204772,13.2103,-44.1842,22.3308,34.9375,3.84803,-0.388437,-2.05814,-0.60225,0.543349,-1.4069,-13.6551,-41.5708,0.557476,6
standing,83.0,33.625,-8.19393,3.33641,3.79332,-0.0404793,-0.0306081,-0.00462129,25.6252,-23.9615,-35.5662,36.0,0.338058,9.85156,0.40361,0.00682394,-0.0138167,-0.053718,-7.05755,-31.6588,-17.2215,34.8125,9.4435,-2.48274,-0.945847,0.0175005,0.0257531,0.0330139,-36.8548,20.0839,39.8337,6
ascending stairs,128.0,32.3125,-9.65336,5.97315,0.375679,-3.92339,0.441786,1.45898,13.1345,-56.6186,37.4997,36.9375,0.372624,8.34802,-4.74076,-0.342394,0.97125,-0.897377,-37.5013,-22.8856,22.5267,34.9375,10.9268,2.06424,-0.958853,-0.253319,-0.152588,0.854603,-13.0132,-22.069,55.3951,2
descending stairs,148.0,34.5625,-2.30029,2.26674,-0.30991,1.81274,-0.870837,0.240631,32.4631,-38.0859,-12.9225,37.9375,-0.342945,1.68021,0.0306234,-0.516406,-1.27828,0.289914,-1.29701,-41.9347,-13.457,33.6875,2.98319,-3.71148,1.04077,-4.58854,-1.44136,-0.560826,-36.0388,-8.55028,35.7566,5
running,188.0,30.8125,-8.93622,-25.9309,5.8438,-4.82948,-0.862525,1.71254,45.8974,11.8429,8.26959,34.1875,3.27619,21.3118,-1.78751,-1.23284,2.30904,-0.238517,7.72275,-32.2557,31.6722,31.6875,-4.7518,0.783143,0.547662,-0.937651,-0.74124,-5.77366,7.31963,46.4742,0.387295,8
transient activities,105.0,32.375,0.676412,-9.18616,2.92928,-0.0271685,-0.0180693,-0.0132342,1.61441,30.5804,-2.12168,36.9375,0.33577,9.85104,0.326128,0.0397977,-0.0294748,-0.0474108,17.8177,-26.7915,0.12645,32.5,9.28739,-0.100912,-4.24234,0.124198,-0.0428247,-0.0161882,-24.1514,12.2151,31.2357,8
cycling,120.0,29.9375,-5.33431,4.06979,7.68242,0.123505,-0.121136,-0.475843,15.5145,-27.8655,-34.4323,34.8125,-0.566156,1.84667,-8.84106,-0.111553,-0.302038,0.162303,-7.64444,-22.3216,35.1157,33.75,12.6049,-0.606479,-0.654943,-0.384247,0.5331,-1.90349,-36.8383,15.6342,29.1321,2
walking,114.0,34.625,-11.886433333333333,5.021086666666666,2.2569833333333333,-1.9053466666666663,0.9746206666666668,0.8463113333333333,46.83433333333333,-20.60633333333333,-6.408486666666667,38.1875,3.60976,11.8344,0.0692277,-0.421192,-0.0339688,0.274693,-7.49141,-37.4467,-16.7687,34.125,15.9347,9.11816,-3.8069,3.11006,-1.81693,-3.54143,-35.2129,32.4191,15.7137,5
lying,71.0,34.0625,6.56621,-2.10205,6.84234,-0.00530542,-0.0565959,0.000848348,-40.3851,-6.77396,-15.9831,37.125,0.923872,-0.781662,9.62565,-0.0185648,-0.0178809,-0.0228318,34.9113,15.2963,-29.1815,33.5625,-0.911597,6.44434,-7.5519,-0.0462,-0.0164312,-0.0179646,-15.0725,8.82136,38.0795,8
ascending stairs,153.0,32.5625,-8.78553,1.65843,2.3276,-1.89718,0.134498,0.943246,39.4507,14.7684,-28.0864,35.625,1.16898,7.69351,-0.929555,-0.390308,0.481091,-0.0415703,22.4144,-34.7093,9.79169,33.5625,6.45424,-3.4218,-4.5595,-0.0825833,1.20576,-0.268128,-28.2153,-35.2159,-11.6987,4
ironing,85.0,34.0,-4.17764,7.85282,3.22245,-0.164695,0.107572,-0.488936,9.39907,-43.554,-9.95548,36.375,-0.800834,9.69688,-0.739428,0.0163857,-0.24329,-0.0221513,-2.0015,-37.1443,-6.43887,35.0625,9.62921,-1.90243,-2.41395,9.02693e-05,0.0388009,0.0535716,-27.4112,4.82364,45.416,6
vacuum cleaning,102.0,34.125,-9.0729,2.83855,2.51175,0.740437,-0.126972,0.604097,56.8335,-1.7863,-14.2418,37.25,-2.02566,8.16803,-4.66746,0.17062,-0.888682,0.378529,18.5232,-34.5838,26.9664,33.0625,9.1902,-1.86451,-2.07138,-0.560179,0.127927,0.0537207,-43.5705,5.76803,5.07778,7
walking,119.0,29.4375,-12.5584,1.48022,0.308834,1.69361,-3.7313,2.7914,27.3611,-18.0894,-35.7356,36.875,1.0014,5.29969,1.35973,0.0603307,0.0301993,-0.245823,-0.131814,-33.0704,-14.3063,34.5,9.49162,-0.421992,-2.27019,-0.298294,-0.320877,-0.709966,-38.2018,18.2648,17.2885,3
transient activities,85.0,33.0,-5.3967,3.98817,6.98899,-0.103141,0.032947,0.00496797,36.4175,-35.1023,-59.7984,34.9375,0.826657,9.68917,-1.09713,0.0423676,0.0405509,-0.0267569,-8.44597,-39.6094,-11.5459,34.0625,9.18264,-0.558715,-3.89327,0.0451434,0.0124116,0.0187822,-34.042,27.0313,42.1048,6
ironing,90.0,34.75,-7.85146,5.00076,3.52343,-0.217897,0.00182318,0.101065,71.87,-56.943,-13.6753,38.0,2.11922,9.722,-1.18998,0.0212555,0.191273,0.0463177,-25.1043,-37.7309,13.0033,34.6875,9.78841,-0.0808864,-2.42362,0.0328584,0.0550106,0.0104843,-49.3403,3.42601,-13.5198,8
standing,78.0,33.625,-7.48486,4.20946,4.45529,-0.00862905,0.0671339,0.0315383,21.9385,-32.3114,-12.0175,35.9375,1.19913,9.58188,-0.0832861,0.0109871,0.0789438,-0.0235629,-11.0665,-24.5655,0.617862,34.8125,9.17304,-0.708019,-4.20116,0.0655628,-0.0143875,0.0130705,0.412954,0.322753,37.5765,6
transient activities,155.0,33.8125,1.5476,11.0143,5.37586,-0.988717,-0.376321,-1.09606,21.8388,-26.6059,-24.2565,36.375,1.70651,10.1851,0.272434,0.0645338,-0.624383,-0.266535,21.6835,-25.2723,14.1042,34.0625,10.2324,0.830406,-2.77203,-0.153961,-0.266409,-0.894982,-42.9688,-16.9227,4.53889,5
lying,93.0,30.8125,6.12756,5.13879,5.77219,0.00779263,0.017996,-0.00158621,-13.0387,14.2683,-59.5744,32.625,1.26627,2.0018,9.35176,0.00450884,-0.0478472,-0.00176004,39.1876,11.1308,-54.7136,31.1875,-0.585829,-7.7277,-6.57305,0.0184768,0.0326527,-3.84104e-06,-15.2269,45.0074,-5.76074,1
walking,117.0,33.125,-9.93821,2.00327,1.69338,-1.34094,-0.892062,3.84447,83.0004,7.59127,1.05287,37.1875,-0.0813699,6.90012,-1.91765,0.44296,0.340813,-0.622362,8.22406,-32.854,77.9994,34.625,9.54888,1.0657,-3.16639,-0.294708,0.243491,-0.165064,-41.2581,-73.0904,-7.79775,1
transient activities,107.0,34.4375,-9.12566,2.98658,2.04862,1.10389,-0.346631,0.294253,32.613,-15.0193,-23.8237,38.0625,1.64784,9.03415,-2.90001,-0.271073,-0.830509,0.168027,9.86705,-30.2394,1.35975,33.75,9.41435,-0.0405468,-2.42771,-0.238536,-0.00594675,0.225039,-32.173,7.63324,0.860752,5
walking,126.0,30.9375,-12.0164,6.54574,2.91701,-0.89073,0.0753518,-0.195301,38.2057,9.31326,-23.8759,35.875,1.73379,10.9667,-6.62194,0.228218,0.224556,-0.0598522,6.77489,-26.0101,19.2718,34.25,10.6072,3.44695,2.00069,0.79108,-0.548663,-2.92987,-29.2321,27.7249,20.5343,2
walking,120.0,33.1875,-7.48041,3.9638,2.45484,1.39922,0.121449,-2.03063,58.2831,14.4462,-14.3293,37.1875,-0.919209,3.70427,-1.61268,-0.00849459,0.0616287,0.359619,8.26893,-61.9924,38.3681,34.6875,11.495,-1.49438,-2.66747,2.05922,-1.76809,5.58457,-38.5862,-18.95,-12.6884,1
standing,85.0,32.5625,-7.94115,5.97272,1.82536,-0.645174,0.302732,0.126088,28.7523,-17.6936,-5.07919,35.6875,1.92406,9.29625,2.5638,0.0281207,0.126073,0.0650619,-10.6669,-24.5905,-11.1451,33.4375,9.74185,0.0634314,-1.46025,0.0103934,-0.0097503,0.0326622,-5.90769,-3.15194,23.9751,3
transient activities,135.0,33.5625,-5.59287,3.91207,6.79387,-0.0310618,0.0154118,-0.00969746,2.65129,-14.2782,-8.54457,36.75,2.6452,9.57684,-0.134514,-0.101216,0.214828,-0.0589778,-5.55576,-13.4106,-8.1494,35.125,7.17061,5.19345,-4.6828,-0.0385541,-0.0210837,0.0253375,-22.3893,-6.93952,27.0092,6
Nordic walking,116.0,34.875,-9.50418,12.1361,2.31998,0.374115,1.15612,-2.03485,-9.14874,-44.8037,-18.9653,38.5,2.36369,14.5241,-3.6793,0.0239303,-0.529893,-0.0710668,1.45807,-43.3241,-15.263,34.4375,11.9567,-0.328044,-6.37458,0.65047,-0.955426,-3.12626,-36.8098,-17.2832,30.0908,5
walking,94.0,31.75,-12.9056,3.76318,0.719293,-1.78275,-0.364134,2.21296,58.5607,3.82476,-21.8908,36.4375,-0.0732618,12.7059,-0.890911,0.347804,-0.107464,-0.223636,17.1644,-55.0227,11.2805,34.875,10.4854,4.84549,-6.46036,1.08011,-0.43662,-0.619198,-50.5566,-6.23428,8.04561,6
sitting,81.0,33.9375,-5.83994,4.43893,6.09562,0.0168998,0.34882,-0.439504,17.9401,-22.7486,-20.1703,37.375,-1.92984,8.66143,-4.0478,0.400217,0.00946178,-0.171027,4.19614,-21.6893,8.32912,34.75,9.12439,-2.66523,-1.60401,0.0559581,-0.00910593,-0.123184,-15.3302,-3.244,22.6897,2
vacuum cleaning,98.0,35.375,-3.98008,7.89018,-0.892865,-0.669892,0.12545,0.232013,28.1775,-32.7499,15.4,37.6875,-1.09659,8.52722,-6.78145,0.945751,-0.175853,-0.0526551,-6.87587,-25.5314,36.1856,34.375,9.67102,1.46971,-1.58547,-0.376521,0.824321,0.131631,-51.7649,-10.135,18.2578,5
Nordic walking,123.0,30.3125,-5.37961,3.02489,1.14242,-1.09594,-0.555753,2.85414,3.71112,-27.9961,-21.7998,35.3125,1.08394,6.65821,-3.71564,0.24728,0.173142,-0.0682218,2.85487,-27.392,1.4367,34.0625,10.8771,0.139407,-2.33664,-0.135871,0.243108,-1.47387,-32.9226,12.5992,22.8788,2
transient activities,126.0,33.4375,-2.86266,-6.96861,1.71417,-0.452625,0.232588,-1.04183,34.6414,26.6841,-37.0727,37.6875,1.61204,8.19555,1.12905,0.103534,-1.42978,-0.147737,-23.6085,-36.8692,-0.386576,33.5,17.7087,-8.0378,-10.5126,-2.05547,-2.51212,-4.96293,16.1367,-19.6551,-9.57506,8
cycling,133.0,31.4375,-0.579269,5.20545,7.32646,0.366269,0.607469,-0.0221617,47.5175,-15.8144,-49.7137,35.75,-0.661662,4.79525,-7.18737,-0.858144,0.137922,0.109607,3.60293,-26.5792,56.3641,33.625,5.18018,3.6549,-0.71894,0.0844434,-0.0240446,-0.699086,-33.1582,-45.7422,-11.7808,1
transient activities,94.0,33.8125,-8.77137,2.34368,2.59492,-0.150724,-0.0282161,0.0909454,29.3412,-17.8577,-20.3639,37.25,-0.531701,9.41565,-3.21178,-0.00502746,-0.00174155,-0.079965,6.86014,-28.6594,3.21185,34.6875,9.60736,-1.45042,-1.9539,0.0368728,-0.00529787,0.00756605,-5.75753,-3.2189,28.6768,2
sitting,83.0,32.25,0.896632,6.63375,7.11282,-0.00850127,0.0148414,-0.0144348,-30.6302,0.604962,-60.0988,34.0,0.507374,9.74201,0.987848,-0.0419483,-0.0428682,-0.0430038,12.8232,-60.1647,-43.565,32.625,-1.12468,0.846585,-10.0277,0.0196584,-0.0357445,-0.00851955,-12.1904,32.5095,72.5569,1
vacuum cleaning,98.0,34.5,-9.01497,2.98503,1.9733,-0.6051,-0.607708,-0.849511,30.0949,-12.9365,-17.1948,38.0625,2.87389,7.53792,-6.39654,-0.42114,-0.474039,0.19684,5.49484,-24.4831,15.8223,35.3125,9.73986,-1.79928,-1.17859,0.644656,-0.254967,0.823709,-9.70215,-5.3107,22.1265,2
transient activities,85.0,33.75,-9.54242,-1.83981,0.82706,-0.0215979,-0.0318277,-0.0303176,48.4637,-6.28476,13.2299,36.625,-0.314665,9.77724,0.237143,-0.00942128,-0.0014223,-0.0246003,8.32003,-38.4607,24.6614,33.3125,9.77921,-0.154254,-2.73197,-0.00121323,-0.0242163,0.0104394,-35.4445,38.2557,-17.199,8
descending stairs,132.0,32.125,-9.3172,5.94385,10.0796,0.630274,0.568742,-0.948313,30.6213,-28.8063,-20.9595,36.6875,3.71503,19.1664,-12.537,0.900189,-0.288726,0.174238,-22.0931,-32.2521,25.1995,34.75,9.11383,4.80767,-0.762934,0.804981,0.243871,-1.09248,-56.5593,-13.5586,19.9462,2
transient activities,119.0,34.6875,-3.40302,3.48783,7.94424,-0.0370845,-0.0345431,0.0320623,16.7487,-20.5088,-34.7817,38.25,0.719304,9.88802,0.410398,-0.0071016,0.0182875,-0.0603924,-3.59262,-31.933,-0.698348,34.375,9.7828,-0.318098,-1.26452,0.0237093,0.0111824,-0.013583,-23.0342,8.13692,20.607,5
ironing,100.0,33.625,-6.41842,6.08723,3.23333,-4.7971,0.783728,-1.11086,37.5669,-67.1578,-26.1422,35.6875,-0.191615,8.00407,-5.75661,0.0372888,-0.0564663,-0.0503526,-6.87655,-43.2968,5.97053,34.3125,9.88613,0.281537,-0.379619,0.00496574,-0.0164461,-0.00128759,-47.9767,7.23903,36.4055,4
sitting,79.0,33.5,0.282153,8.21681,5.40483,-0.0441339,0.0140826,-0.0191027,3.10565,-21.137,-22.0208,35.875,0.386267,9.77846,0.753209,0.0395231,-0.0131737,-0.0433627,4.48664,-25.2626,-4.91014,34.6875,9.39349,-0.871037,-3.00161,-0.000721835,-0.00736655,-0.00673158,-17.3802,-4.27259,11.9895,6
rope jumping,181.0,30.1875,-7.58685,11.6814,-4.38506,0.631872,0.690963,5.41372,47.9294,-49.4249,-10.3857,33.8125,-1.58298,-4.71783,-0.0872083,-0.868183,0.265606,0.152494,-33.9235,-55.9398,19.3494,33.125,18.7533,-71.4667,-3.89533,5.49074,-3.07714,-7.86221,-51.9679,-26.2227,39.4543,1
transient activities,101.0,34.25,-9.61186,-1.53471,0.940452,0.0397726,0.0115031,-0.0147477,37.2586,6.7003,-20.2903,37.5,0.564657,9.92563,0.330032,-0.0487138,0.00345026,0.00851742,-1.43037,-30.8445,-7.88071,33.8125,9.51833,-0.152915,-2.69607,-0.0344835,-0.000867244,0.0294765,-1.52993,17.3662,21.3811,8
standing,92.0,34.125,-8.40255,5.16914,0.666539,-0.0522537,0.0254006,0.00204659,23.4072,-25.6473,2.88158,37.5,1.1758,9.10752,-3.41217,0.0179211,-0.0102598,-0.0298328,-11.4865,-23.9436,6.61718,34.8125,9.8465,-1.18992,-1.48999,-0.0265006,0.00935776,0.024867,-19.061,-17.8379,35.0662,2
lying,71.0,34.1875,6.49143,-2.177,6.87996,-0.064252,0.0174204,0.0233578,-40.2662,-6.77986,-15.3272,37.375,0.835559,-0.596007,9.19752,0.012484,0.0308061,-0.0333548,34.4105,14.6702,-29.4634,33.75,-0.917099,6.44595,-7.74491,-0.0689957,-0.0135477,0.0206016,-15.0628,8.43506,38.2219,8
walking,122.0,31.75,-9.31406,6.23542,0.302902,0.0973734,0.329619,0.920445,28.4132,9.20867,-39.2725,36.5,1.87815,10.9267,-6.89024,0.10786,0.139016,0.356418,16.1142,-25.7505,30.0782,34.5,14.2259,4.76423,5.30973,2.21242,-0.495414,-3.69919,-42.3182,3.19149,8.37314,2
cycling,134.0,28.5625,-11.2421,0.305377,5.83621,0.589279,-1.28563,0.685046,63.4627,35.2191,-5.29342,34.375,-3.70002,1.51845,-14.3177,-0.39189,0.252268,0.826938,31.3553,38.827,39.4703,34.0,0.884256,5.89008,-6.14082,0.909069,-0.029452,-0.0848936,5.66203,-51.4259,-2.19978,6
vacuum cleaning,77.0,34.125,5.08385,3.26673,7.64875,0.00760465,-0.0758015,-0.00628781,-6.08589,6.89203,-38.4449,36.625,1.10433,9.62429,0.573115,-0.0362349,-0.0205546,-0.015354,23.6543,-28.5535,-0.809966,35.1875,9.51991,0.150833,-2.69794,-0.0031389,-0.00175404,-0.0208646,-29.8559,29.5259,-1.56764,6
walking,104.0,33.0,-6.86451,1.20584,0.0871501,-1.57456,-0.429203,0.52734,24.1092,-39.1358,-22.7416,37.9375,1.44666,9.35965,0.580177,0.0704341,-0.309359,-0.0664139,-3.88845,-39.7745,-14.4743,32.25,10.4191,2.24699,-4.36108,-0.776663,0.540324,-1.29395,-38.7196,8.70144,34.0252,7
running,114.27272727272728,30.9375,-5.67197,0.0756791,2.0332,3.97115,2.51309,-0.902911,19.9337,45.5902,-32.8269,34.125,2.5421,7.20025,-0.825633,-0.00262602,-1.13967,1.1291,-7.08374,-43.4397,26.4155,31.6875,16.5012,8.00439,-7.34442,3.46131,0.0396384,-0.903078,-36.8939,37.0899,-0.466514,8
walking,119.0,29.875,-9.76649,-2.58628,-2.21428,2.86425,-1.0249,1.27801,-1.91541,-35.7506,-28.0683,36.9375,-0.608229,13.2052,0.298124,-0.605716,-0.074306,-0.323186,-3.1309,-31.1551,-17.2911,34.5625,29.8691,-12.3871,6.03967,-2.8926,-0.593032,-4.12474,-39.613,4.4005,26.6832,3
standing,99.0,33.0625,-8.55295,3.6275,2.09352,0.0139069,-0.0251654,-0.0237896,30.7332,-23.7189,-7.75681,35.1875,0.727856,9.66417,0.721048,0.0413953,0.0109727,-0.0242016,-0.898824,-28.4104,-11.1339,33.875,9.47696,0.570974,-2.97111,0.0474009,-0.050913,0.0307981,-1.8532,1.57562,31.1847,4
Nordic walking,137.0,29.5,-9.97979,30.3445,9.91042,2.1905,0.156148,-2.30662,33.6405,-9.36452,-22.154,34.8125,-0.248393,13.642,-1.74899,-0.399621,0.518917,-0.0471116,9.59876,-19.2902,23.0104,33.0,22.1115,-5.84438,-3.49634,-1.82198,-0.0649399,-3.34183,-18.8008,-32.1653,3.22327,4
ascending stairs,125.0,32.3125,-9.92058,2.61365,2.07645,-2.39014,0.0379925,0.223434,32.0163,-27.1769,-1.63119,37.0,0.716875,9.09109,-6.05345,-0.462797,1.32781,-0.558302,-14.0268,-28.5734,21.1592,34.9375,12.0556,2.35959,-0.794752,-0.335587,-0.275356,0.875292,-26.12,10.9438,29.8609,2
running,172.0,28.1875,-14.2499,-12.5843,0.176995,-0.877944,4.50995,3.47926,24.7694,-38.1724,-14.0874,33.25,2.65601,-1.60582,-0.0205274,-0.51668,1.27709,-0.740844,15.2808,-23.7673,33.9327,33.8125,9.08865,-8.02247,-5.77739,-2.76962,0.48236,0.114249,-24.9352,-28.7871,-2.75917,6
sitting,72.0,34.375,-1.81352,-9.4505,0.891532,0.00408883,-0.0169204,0.0381825,7.03084,24.2016,-15.3484,37.625,0.413988,9.73836,0.405353,0.000975936,0.0160914,-0.0361896,5.90179,-25.9604,-4.19131,33.9375,9.20313,2.7329,-2.48567,-0.0193204,-0.00338737,-0.00122904,-18.3019,16.1548,25.4366,8
transient activities,90.0,33.8125,-9.20231,2.64604,2.0871,-0.109523,0.244769,0.0777349,44.9833,10.2855,-3.11185,37.1875,0.360004,9.49159,-2.6925,0.0597671,0.0608518,0.0869033,3.98206,-26.3674,31.8545,34.6875,9.72404,-1.45242,-1.79833,0.0153304,0.0133786,0.0100477,-62.1789,-31.773,-14.6127,2
walking,120.0,33.0625,-11.1408,6.50276,3.1227,-0.850538,0.227014,-0.270098,66.018,-36.333,-18.437,37.1875,-0.0117467,14.057,-1.51372,0.293286,-0.0486965,0.0249881,-6.9533,-52.8949,-8.79795,34.5625,16.208,16.3228,1.78527,-0.686415,0.774943,-3.86506,7.66101,45.3556,40.7204,1
vacuum cleaning,135.0,33.625,-7.20014,12.3624,-4.2661,5.08813,-0.0613501,0.386416,46.6038,-35.9336,4.24098,35.6875,1.69677,8.65142,-3.78846,-0.309116,-1.29862,0.509203,-24.1139,-49.5564,-5.74422,34.625,9.9742,0.287893,-1.22773,-0.0417189,0.859182,0.0359475,-56.2614,14.0572,50.1927,1
transient activities,130.0,33.5,4.72731,8.15932,2.89296,-0.281394,-1.1121,0.471212,-34.1084,-37.1554,-35.9315,37.0625,-1.59495,9.76731,-1.83823,0.0520559,-0.322874,0.0525879,15.0845,-56.7614,-8.59137,34.8125,9.92739,-0.252187,-0.144346,-0.016175,0.0361591,0.0558673,-57.4217,10.9335,-2.93217,1
transient activities,112.0,32.625,-7.68524,5.18296,2.83253,0.0203739,-0.046182,-0.00182248,30.3084,-52.3772,-29.2354,35.4375,0.818755,9.592,1.2263,-0.0211408,-0.0415357,-0.0281929,-10.5061,-47.4079,-4.3247,33.4375,9.30968,0.158765,-3.51052,0.0348546,-0.0164314,0.0224234,-62.2946,13.388,45.7089,4
transient activities,144.0,30.875,3.14383,-9.06184,-2.19149,-0.114843,-0.0480619,-0.0136763,12.1662,44.0362,-7.86763,34.0625,-0.433854,9.82288,1.35774,-0.00326354,0.0556568,-0.0454861,0.249671,-41.7663,17.4328,31.6875,9.75199,-0.309103,-2.3454,-0.000406683,-0.0258434,0.0127894,-44.0715,14.2726,-0.890791,8
transient activities,157.88888888888889,27.9375,2.19978,8.54036,5.08608,0.184653,-0.039193,-0.215035,10.6528,-26.877,-23.5761,33.1875,1.23754,9.69472,-0.0829569,-0.0927133,-0.013489,-0.00711484,1.8802,-29.4365,8.63184,33.8125,9.37857,-0.56247,-3.58252,0.00714728,-0.0257527,-0.0265768,-41.9688,10.463,8.90744,6
sitting,69.72727272727273,34.25,-1.92823,-6.81602,6.84647,-0.0199259,-0.0488598,0.0176191,6.87747,16.2585,-28.6856,37.625,0.50101,9.92872,0.7548,-0.191845,0.126936,-0.0600333,5.89613,-24.6696,-5.0447,33.875,9.23506,2.73427,-2.6783,0.016427,0.0228565,-0.0103417,-18.7988,15.6655,25.7191,8
lying,81.0,31.625,7.14368,1.30475,6.45463,0.0194039,0.0348551,0.0258488,-2.97508,23.8557,-55.0729,33.375,0.507448,-0.139986,9.65474,0.00213032,0.0103739,-0.00238611,46.8977,12.9168,-46.0137,32.0,-0.0369656,-7.38536,-7.07121,0.0374987,-0.00970894,-0.0208322,-18.7697,44.0889,-1.90442,1
transient activities,146.0,28.8125,-0.207497,6.36041,-11.6077,0.581146,-0.537865,-2.45449,-9.97864,-33.2979,3.76012,32.3125,1.6684,4.97729,-6.99087,-0.62844,0.36058,0.663866,24.2691,-32.4453,-0.696761,30.4375,10.1282,3.86017,-1.74998,0.144369,-0.190537,0.345627,-37.9648,9.36201,-11.1537,2
ironing,85.0,34.0625,-5.31846,4.7457,6.91063,-0.0923223,0.117913,-0.0138734,10.3319,-31.9566,-36.4053,36.5,-0.753526,9.41792,-2.98348,0.0379946,0.0960406,-0.0853164,-10.0671,-36.989,6.19452,35.0625,9.46647,-1.44136,-2.95873,-0.0986112,0.0199282,0.0129602,-27.8444,-4.55145,45.9927,6
transient activities,105.0,34.375,-9.00269,3.78343,2.16323,1.00075,-0.187176,-0.850057,53.6325,-21.234,-30.7839,38.0625,0.881506,9.25003,0.80262,-0.108059,-0.407281,0.244426,6.03688,-58.9796,-5.13093,33.625,9.24332,0.308865,-3.24201,-0.0379691,-0.197138,0.122155,-51.7692,13.2918,16.5286,5
transient activities,110.0,33.625,-3.43176,0.478937,6.64539,1.11628,-0.223694,-0.0433757,48.2219,-12.6246,-21.9013,36.0,-0.403328,9.39835,-0.150442,0.0249131,-0.403727,0.0369024,-18.3178,-27.923,13.9819,34.375,16.2312,2.41379,-1.33111,0.976378,-0.539276,-2.3125,-18.2873,-12.6391,40.9298,4
walking,100.0,32.9375,-12.1231,2.48615,2.85213,-0.496272,0.958339,-3.35864,39.386,-31.1385,-19.9339,37.875,1.28995,8.89884,-0.815119,0.377871,-0.0548301,0.222192,-5.14978,-37.6608,-18.0202,32.1875,1.23079,-1.79025,-0.416934,-1.95144,0.234691,1.76124,-36.3833,-21.5656,25.8423,7
ironing,105.0,33.5625,-4.71083,6.05754,5.64523,-1.68817,0.176711,-1.18427,1.27068,-13.8619,-52.2446,35.5625,-1.38398,8.39037,-4.88889,-0.0318881,0.0233788,-0.0352311,9.52479,-42.3504,2.13115,34.1875,9.76797,0.218602,-1.88543,-0.0804076,0.0587637,-0.015774,-40.5188,13.4494,41.956,4
ascending stairs,128.0,32.5625,-7.09538,4.27542,3.69115,1.79573,0.0135088,-0.544079,60.7387,-3.83804,12.534,35.625,0.243322,8.04132,-0.0568737,0.533823,-0.577045,-0.077568,-12.6411,-36.1521,36.4878,33.5625,-0.733212,4.31151,-2.21147,2.8329,0.292905,2.21394,-15.626,-44.1298,59.8393,4
lying,91.0,30.9375,6.0584,5.10311,5.96371,-0.000222845,-0.0336271,-0.0183981,-12.9103,13.9226,-58.6538,32.6875,1.11446,1.81427,9.38834,0.00904835,-0.0379662,-0.0377703,40.1148,10.5387,-54.4552,31.3125,-0.617865,-7.5389,-6.42019,0.0242531,0.0274887,-0.00712671,-13.6542,44.7315,-5.77654,1
walking,104.0,33.0,-8.20506,0.946452,-0.393904,-0.763108,-0.922876,2.37369,26.3338,-31.6919,-33.421,37.9375,1.34206,7.85698,1.04782,0.204067,-0.246447,-0.253075,5.51363,-38.1852,-16.11,32.3125,9.55135,-0.151867,-2.85009,-0.88303,0.557918,-1.15464,-40.8761,15.8656,25.783,7
ironing,79.0,33.5,-1.45801,2.89954,7.51351,0.167409,-0.167711,0.045475,16.5238,-2.01866,-52.8722,36.3125,-2.01531,10.2199,-1.92476,0.0649834,-0.050289,0.106675,10.6685,-37.23,-1.69708,32.6875,9.84524,-0.162843,-1.72792,-0.0164747,0.00691294,-0.0153042,-36.3734,-1.17462,42.6967,7
Nordic walking,126.0,29.0625,-9.61798,7.32709,3.29668,-0.617924,-0.795558,3.30888,49.2416,-18.3832,-15.5693,34.4375,0.392499,9.52783,-2.88563,-0.33876,0.985133,-0.444743,-6.27152,-48.5017,28.706,32.8125,10.686,1.05441,-2.653,-1.2909,-0.0181505,-0.864137,-43.6888,-12.3426,17.4378,4
walking,96.0,31.625,-12.1368,2.45341,-0.804268,-0.0948427,-2.25789,2.35937,46.4369,-21.3269,-2.29138,36.4375,1.6841,9.21039,0.894731,-0.0576363,0.411533,-0.0523821,-17.3341,-38.2733,10.8044,34.875,10.1469,1.96407,-2.04674,-0.549118,0.0166187,-1.04383,-35.781,-8.30355,36.4664,6
rope jumping,168.0,30.1875,-5.01329,0.887231,-4.19463,-1.60987,0.783774,2.69263,61.0623,-32.4137,-4.68205,33.75,-0.454612,-1.76336,3.02131,3.06338,0.365621,-1.1268,-33.7403,-57.1369,15.1829,33.125,-2.94265,-16.0182,1.55804,0.739935,-0.241065,-3.40528,-43.5864,-42.0373,36.6178,1
transient activities,87.0,33.75,-9.10098,2.83151,1.70312,-0.0687691,-0.111785,0.161179,34.9088,-35.0939,16.7129,37.75,0.946349,9.69878,0.376406,-0.132949,0.0566652,0.0389491,-27.0679,-28.7449,-1.1618,32.5625,9.436,-0.530521,-2.88752,0.0816197,0.0164878,-0.0787631,-9.80479,-2.46522,54.4219,7
vacuum cleaning,98.0,34.4375,-5.91189,10.6295,-5.97289,-1.83994,-0.238802,-1.26401,23.9772,-28.3438,-1.5517,38.0625,3.80755,6.32641,-6.91778,0.314867,0.518208,-0.0925281,4.18716,-23.8194,21.3194,35.3125,9.87524,-1.37775,-1.75866,0.36869,-0.124493,0.00259508,-11.9962,-20.4204,2.67458,2
transient activities,127.0,33.5625,-5.97287,2.66467,6.98483,-0.00125029,-0.0274575,0.0235675,3.03453,-13.4318,-11.1751,36.75,2.46862,9.53422,-0.950714,-0.0701115,0.00770392,-0.0345023,-6.07396,-14.4244,-7.01922,35.125,7.04914,5.12079,-4.99231,0.0698267,0.0137138,-0.00319726,-21.8807,-6.70656,27.2944,6
cycling,133.0,27.75,-8.9634,-3.98031,3.80648,-0.00622569,1.03448,-1.1179,53.5215,21.2256,-12.275,33.0,0.112614,4.5698,-6.74668,0.184549,0.0771372,-0.0358066,23.5905,-9.89435,40.2569,32.75,13.5633,-0.874569,-1.10652,0.23952,0.234212,-2.63646,-33.9663,-19.8496,-6.20528,4
transient activities,131.8181818181818,30.0625,2.40743,5.75081,7.29238,-0.726075,-0.130239,-0.17472,7.81359,-14.2859,-31.7674,35.0,0.777443,8.65324,-3.96,-0.12606,-0.0452503,-0.053708,14.7789,-20.8925,16.9486,33.9375,9.72824,-1.49167,-1.64369,-0.0435412,-0.0400486,-0.0142404,-31.5016,3.01397,1.2274,2
ironing,91.0,34.3125,-1.56694,4.16109,8.46981,0.172717,-0.178717,0.187241,-12.8932,-14.607,-40.3291,37.6875,-0.606715,9.29452,-4.45181,-0.421176,0.306664,0.362339,-4.99665,-33.0454,0.697042,35.125,9.74334,-1.77296,0.2491,-0.0175056,0.0938865,-0.15786,-41.9352,5.18454,32.033,2
walking,122.0,31.4375,-13.4944,5.76928,-0.335454,2.3588,-1.185,-2.67444,56.5624,1.22677,-19.4284,36.3125,-1.03217,14.2993,-5.13405,0.406083,-0.230125,0.252584,-6.13177,-40.8359,25.7978,34.4375,14.4327,-10.6553,1.04693,0.757182,0.260468,-4.47028,-30.9162,32.2079,28.1464,2
sitting,73.0,34.3125,-2.95215,-4.9814,7.44074,0.0207279,-0.000418726,-0.0103677,10.0712,11.6186,-31.551,37.625,0.459364,9.89041,0.638007,0.0236879,0.00826314,-0.0498285,5.76511,-25.4395,-4.19522,33.875,9.12368,2.69669,-2.64062,0.00759957,-0.0119264,-0.0240827,-18.5394,15.3946,25.5785,8
transient activities,95.0,34.625,-11.8273,1.81881,0.626542,0.358101,-0.463648,1.78815,24.4676,-63.8305,-2.86563,38.1875,0.862661,12.3341,-5.28693,0.222889,-0.730682,0.116171,-14.4596,-50.4714,-2.04421,35.4375,12.9848,0.92122,-2.04975,-0.631549,0.343319,-1.93506,-46.1372,20.1885,51.7845,2
Nordic walking,123.0,30.3125,-7.64724,2.62574,1.18677,-0.209299,-0.323535,0.933792,-3.55947,-26.3623,-22.972,35.3125,0.474158,13.011,-5.60594,0.323715,0.201133,-0.0317207,1.84774,-27.9237,2.15617,34.0625,15.8519,0.831202,-2.52145,0.153022,0.532855,-2.86942,-34.6361,5.95321,21.089,2
transient activities,107.0,32.9375,-8.71676,7.71571,0.884166,-0.764273,1.10158,1.28841,31.9941,-25.0474,-37.541,35.0,4.17625,10.2885,0.0457943,0.786928,0.629929,-0.406201,9.70568,-37.9646,-5.08371,33.75,10.6428,0.589301,-1.45428,0.251713,0.0750772,-0.815877,-33.6637,3.5756,-3.25292,4
standing,72.0,33.25,-9.40757,2.98426,1.54407,-0.0249167,0.0184043,-0.0262326,30.3801,-17.6175,-5.16845,35.9375,1.29716,10.3304,-0.703478,-0.0596996,-0.0156294,0.016939,-2.26817,-30.6887,-4.0803,32.5,9.10184,0.204022,-4.24614,0.00556043,-0.0231314,-0.015528,3.48867,-6.33613,14.4765,7
sitting,80.0,32.875,-2.64406,5.26279,7.68021,0.104692,-0.20216,-0.250587,10.8149,-20.1849,-24.1419,35.0625,0.77233,9.61036,-1.63995,0.0781821,-0.389662,0.0362389,2.29383,-24.8027,2.68623,33.8125,8.8689,4.28267,-1.37962,0.174454,-0.348398,0.137051,-0.1334,-4.70916,24.6737,4
Nordic walking,91.0,31.0,-3.3119,9.00952,1.80748,-0.00635474,-0.00890899,-0.057789,25.2831,-24.2974,-8.92335,36.125,0.335842,9.72941,-0.951266,0.045955,-0.0136801,-0.0214146,3.82995,-26.0301,12.1512,34.8125,9.42886,2.94861,-1.17265,-0.00974921,-0.023279,-0.00532909,-26.5033,-11.437,4.02312,6
running,127.0,32.5,-27.2043,38.6184,-4.88524,-0.248106,-4.82894,-5.6237,3.61223,-44.6133,-14.6617,36.6875,1.99325,42.3369,-5.90607,1.74897,-1.36006,-0.0728155,-3.40129,-39.0197,-13.4882,32.0,9.00912,-6.20009,-1.043,-1.52348,0.76523,-0.168919,-29.4443,-29.9282,14.2461,7
sitting,77.0,33.875,-1.4916,6.72599,6.84581,0.0288545,-0.00908317,0.00366389,-1.00069,-20.9405,-24.563,37.3125,1.05852,9.29536,-3.53107,0.0175895,0.00137028,-0.0362716,-2.28477,-20.892,5.90288,34.6875,9.54548,-2.5565,-1.29165,0.0118232,-0.0143528,-0.00991503,-14.437,-3.91617,21.0661,2
transient activities,130.0,31.0625,-6.29146,8.21062,3.18958,0.308317,-0.760336,-2.97245,58.0079,-50.6521,-19.6569,34.6875,1.10596,9.21334,-4.49796,0.347171,-0.920379,-0.0676337,-2.88503,-58.8766,43.8416,33.375,10.8781,-0.528714,0.445964,-0.607798,0.312909,0.37594,-73.5746,-41.1057,-12.6385,1
transient activities,156.0,33.625,-5.511,5.25692,4.51981,-0.75569,-0.0401387,-0.43374,14.5693,-12.6815,-9.75948,36.8125,-1.81198,14.1735,-1.85648,-0.378597,-0.663578,-0.693199,-5.28478,-21.0362,-1.90003,35.125,11.9529,-0.641834,-5.1378,-0.544229,-0.149305,-1.04222,-33.2951,1.84358,26.8188,6
running,140.0,28.875,7.87189,5.68398,0.408243,0.191112,0.630983,1.14197,37.6024,-47.003,-8.27394,32.25,3.95469,0.575967,-5.27014,0.100156,1.14754,-0.512795,-14.6955,-35.7737,41.1195,31.75,9.53968,15.0218,17.4695,-4.48729,1.78203,-5.42849,-35.6117,-5.96515,32.3575,2
lying,87.0,31.3125,3.77123,-3.8454,-8.04977,0.0126751,-0.01484,-0.0126096,18.5896,51.5433,30.1549,33.125,8.9886,3.78576,-1.51089,-0.0169867,0.00441657,-0.0294792,-41.2117,-5.63299,-41.9823,31.75,-1.26136,2.28873,-9.84507,-0.0366497,0.0142715,-0.00347226,-21.4708,20.4714,39.5792,1
vacuum cleaning,101.0,34.75,-2.85518,-4.40853,7.9406,-0.761746,0.653099,0.798505,38.8602,19.394,-24.4387,38.25,2.01799,-0.768437,-10.1023,0.10285,0.022999,0.200401,15.8167,-8.19028,41.6032,34.75,9.60784,-1.14635,-1.99437,0.0648205,0.0649021,0.0516236,-10.3373,-2.38364,29.4574,8
transient activities,105.0,34.4375,-9.12615,-0.29988,-0.557446,-0.978201,-0.232717,0.0885773,53.1104,-11.2772,-29.1372,38.125,-1.45244,9.33052,0.450308,-0.130062,0.454819,0.12139,-15.8623,-42.5759,3.64785,34.4375,8.98989,-2.27776,-2.45676,0.176728,0.346238,1.12509,-83.1357,16.3561,1.23869,8
lying,71.0,32.6875,4.89817,0.504326,8.30957,0.0132748,0.00270179,-0.0137067,19.121,6.77907,-50.8311,34.625,-0.413608,2.23218,9.20441,-0.0189614,-0.0307167,-0.000166002,40.6009,4.89764,-28.8008,33.3125,2.21741,-9.55775,1.53228,0.00662993,-0.0463035,0.0220689,-21.0235,15.6591,-14.0017,4
sitting,75.0,32.9375,-2.55023,6.46893,6.86931,-0.0472225,0.0164006,0.00599975,9.06741,-20.339,-22.9563,35.125,0.682177,9.53218,-2.10598,-0.0267858,0.0765615,-0.0301629,2.91017,-23.9236,3.53155,33.875,9.5639,2.02862,-0.200817,-0.0503124,0.066708,-0.00853063,-7.13691,-6.94359,21.6732,4
transient activities,123.0,32.75,1.30818,7.44315,4.65306,0.199666,0.968949,-0.839074,17.5177,-41.8013,-42.9379,37.0625,0.158021,9.64888,-1.80609,-0.0329442,0.507086,-0.172932,25.4332,-43.751,21.6148,34.375,10.1674,-0.66572,-0.833931,-0.400244,0.0460879,0.289696,-61.6606,-14.1106,-16.7803,1
sitting,77.0,33.9375,-1.16166,6.98592,6.50349,0.0364411,-0.251078,-0.252222,-1.40948,-21.2685,-22.5945,37.375,0.845618,9.06511,-4.26987,-0.045299,-0.318896,0.118343,-1.74024,-20.4746,7.13748,34.6875,9.55408,-2.59704,-0.982593,-0.322895,-0.27692,-0.000654493,-14.8997,-3.44567,20.0846,2
ascending stairs,130.0,32.3125,-15.2795,6.10206,-2.86499,0.0830452,0.750802,0.318855,32.314,-24.7342,-32.1606,36.9375,1.45548,3.28206,-12.7586,0.308708,1.16007,0.0842523,23.8583,-35.0723,7.01587,34.9375,11.5231,2.41413,-2.42131,-0.060557,-0.222138,-2.05702,-31.9582,25.1492,-2.86502,2
transient activities,126.0,33.375,-9.55114,-1.82246,2.75124,1.15861,-0.0786807,-1.43777,34.9457,-9.54297,0.416309,37.6875,1.74522,10.4109,0.272401,0.350999,-0.667808,-0.415543,14.7295,-27.331,8.28628,33.4375,8.70241,-4.64767,-0.283989,-1.47151,-0.208965,0.922552,-35.6236,6.70818,21.699,8
descending stairs,108.0,33.8125,-10.6469,3.52604,1.63914,1.79939,-0.278171,-0.479915,24.0881,-4.02206,-32.7969,37.75,0.646991,12.3815,1.60133,-0.199218,-0.321306,0.344983,28.9009,-30.9357,-4.42605,32.625,10.5435,3.94799,-8.19072,-0.258625,0.435649,-1.57716,-20.7985,25.7047,-9.04844,7
transient activities,138.0,30.375,-4.09734,-0.781469,5.13866,-2.56357,0.50587,0.647387,62.8069,-22.0872,-54.0069,34.0,-0.543928,6.94062,-7.26965,0.0268204,0.0283783,-0.102663,5.89344,-38.6425,84.0851,33.1875,9.39035,-1.89683,-2.9181,-0.0988608,0.037184,0.0288762,-44.2916,-31.0655,9.50923,1
lying,82.0,31.875,7.10267,1.41786,6.33817,-0.0206065,0.0382,-0.00882527,-3.08533,23.6429,-54.9582,33.625,0.773505,0.00953516,9.62035,-0.000710241,-0.00498754,-0.0117667,47.1173,12.8982,-44.7846,32.3125,0.0299618,-7.00326,-7.4202,0.0350074,-0.0369073,0.00884019,-18.7534,44.6009,1.0716,1
transient activities,110.0,30.75,-0.465663,4.50217,0.941626,-1.24704,-0.46524,-1.12236,9.26751,-28.5213,-6.0143,35.75,0.476427,8.68395,-5.12718,0.136437,0.0462653,-0.121254,-1.12277,-20.3549,16.2178,34.1875,9.61108,-1.79375,-1.75878,-0.0278723,0.000385464,-0.0532069,-29.1526,0.063207,9.59366,2
descending stairs,113.0,32.6875,-7.01639,5.55601,11.1546,0.0838012,0.144873,0.271729,61.8056,-47.7192,-13.9733,35.5,1.167,19.3385,0.503954,0.854952,-0.277018,-0.289477,-31.5817,-38.6478,8.45132,33.5,0.657374,6.07162,-4.94799,0.456735,-0.512284,-1.43922,-8.08804,-34.6384,44.2533,4
walking,125.0,31.8125,-11.3172,6.78103,0.155595,2.30686,-0.688172,-1.67892,47.6765,-13.1249,-14.1578,36.5,2.43249,12.2845,-6.3038,-0.369032,0.0909816,0.61157,4.94642,-39.1213,5.62025,34.5625,18.717,-14.5269,11.6113,-0.919543,0.279345,-1.5394,-24.0716,35.5897,21.0711,2
ironing,85.0,32.9375,-4.39849,7.55307,3.45108,0.495207,-0.565643,-0.48701,4.06633,-30.1766,-31.5486,36.3125,-2.1712,9.35414,-1.96349,0.0167561,-0.248521,0.094908,8.85688,-31.8725,-7.05874,33.8125,9.91431,0.615545,0.544747,-0.103019,-0.0701655,0.0790615,-39.2495,12.6108,30.6049,3
transient activities,139.0,33.9375,-10.1189,1.66596,1.99971,0.162078,-0.118757,0.214941,36.9545,-11.1393,0.553153,37.6875,0.403865,9.65205,-1.22083,0.0361281,-0.158149,0.0887736,-6.09981,-25.4061,12.5016,32.75,9.70865,0.0350997,-2.6181,0.0101868,0.0365975,0.0346718,-26.4788,-6.34768,27.5614,7
running,157.0,28.3125,-11.7508,-9.93295,-2.37317,-0.859633,2.08921,1.07839,7.66393,-44.0917,-24.5155,33.4375,-1.63938,-1.25982,-1.02877,0.0169361,1.33352,-0.687726,18.9365,-36.3964,19.2244,33.875,7.50953,-14.9145,-2.1234,-0.777297,0.612805,-0.856868,-28.9986,-23.1743,-1.78715,6
ascending stairs,145.0,34.625,-12.4395,2.5045,4.61775,0.48639,0.216309,-1.05014,51.027,-8.05942,-22.9846,37.9375,-0.793734,13.5281,-2.14571,-0.420278,-0.846851,0.60254,4.08669,-42.5552,19.72,33.75,16.5185,-8.9925,0.401974,-0.737774,0.337742,-0.344162,-32.9851,-1.29903,14.2005,5
transient activities,117.0,33.75,-10.1275,3.90802,2.37689,0.283631,-0.446596,-0.732431,36.8419,-47.6651,-46.4628,35.8125,1.82514,9.63264,-3.40211,-0.200332,-0.553938,-0.114131,5.6218,-62.2737,-6.65857,34.75,10.2734,2.14935,-1.58352,0.0612607,-0.534009,0.179125,-91.2606,-13.2551,39.6665,1
sitting,94.0,32.4375,-7.59787,3.63257,3.49336,3.04884,-2.28274,0.498642,6.04665,-29.91,-44.2986,34.1875,1.2286,8.46225,-4.14481,-0.918588,0.191034,0.146468,8.2036,-74.5546,-5.04246,32.875,9.3869,0.613914,-3.51256,0.0142574,-0.206628,0.0245242,-85.538,41.9657,11.492,1
vacuum cleaning,94.0,35.3125,-6.63635,6.96225,3.30409,-0.259283,-0.212911,-2.59536,39.4747,-4.94444,1.16664,37.6875,-1.0868,7.47577,-6.35193,0.0449454,0.0421628,-0.267668,10.015,-7.83916,33.9466,34.3125,9.50519,0.497369,-3.27908,0.14872,-0.00946884,0.134647,-1.20688,-15.6065,22.1296,5
transient activities,90.0,31.0625,-2.85148,9.42436,1.92844,-0.0784689,0.353557,0.0306809,26.2887,-23.6082,-11.423,36.125,0.962386,9.99471,-0.398684,-0.563557,-0.0159683,0.0559787,2.43738,-25.5899,10.3059,34.8125,9.30719,2.83798,-1.48193,0.000525347,-0.0762625,0.0123191,-26.478,-12.3378,4.59159,6
running,136.0,33.8125,-13.7152,17.5789,-3.68852,-1.10573,3.22566,8.04064,-8.89298,-39.7255,-13.2224,36.5625,2.20783,19.5838,-1.68508,-1.22259,2.10649,-0.166674,-8.41101,-38.1967,-7.18251,34.0625,14.0749,7.34416,-8.32994,-0.768277,-0.511326,-1.70712,-40.2535,6.31754,29.2003,5
transient activities,93.0,33.625,6.82523,12.1993,-1.70773,0.406264,-0.248621,-0.248148,-44.1421,-18.3176,-16.9812,37.75,2.00426,8.03145,-6.22029,0.310777,-0.0342824,0.075658,-22.0774,-43.2016,12.8045,35.125,9.53718,-0.756153,-3.23239,0.00586124,-0.0163245,0.0121075,-39.3153,23.9652,56.7201,2
sitting,85.0,32.1875,1.88169,8.38725,4.65847,0.0114596,0.010249,-0.0118156,-13.2814,-26.9547,-68.4641,33.9375,0.353297,9.84626,-0.370516,0.0107449,-0.0320305,-0.0113033,14.4579,-65.9845,-36.3159,32.625,-1.12668,0.885196,-10.1051,0.0552059,0.010092,-0.0103594,-11.6326,33.249,73.5504,1
running,159.0,30.875,-10.916,8.70568,-0.653124,0.536624,3.0258,4.39238,26.2808,-63.1168,9.61999,34.0,-0.583219,13.7202,-1.48426,-1.01372,2.824,-1.1225,-12.0475,-50.5465,46.1654,33.25,16.3047,8.06895,-1.13391,-0.91495,0.716201,-0.419066,-39.7001,-54.8336,9.21815,1
transient activities,98.0,33.375,-8.87311,4.07006,0.393787,1.32052,-0.205005,-0.192184,55.072,-27.105,7.2481,37.6875,0.0773595,9.40482,-4.51722,0.0933462,-0.399878,0.39969,-21.6098,-40.6607,14.286,35.0625,9.23873,-3.97013,0.0260234,-0.179827,0.00569776,0.360793,-53.358,12.8959,46.8146,2
vacuum cleaning,98.0,34.5,-8.06251,7.25803,-3.0302,1.11629,0.682347,1.70888,27.052,-11.9032,-7.65906,38.0625,1.95236,9.88111,-5.56899,0.57341,0.97943,-0.261821,4.78773,-25.8582,9.92598,35.3125,9.91908,0.065137,-1.80575,0.447601,-0.622386,0.126535,15.2842,1.96088,6.156,2
ascending stairs,156.0,32.5625,-2.91821,3.34805,1.25517,1.13277,-0.552552,0.0289477,26.8272,-14.2194,-31.6907,35.375,-0.352235,3.78543,-0.47976,0.231165,-0.347723,-0.267064,21.8923,-26.4286,2.54981,33.375,-0.489341,-2.76846,-0.196966,1.09254,-0.485703,0.94955,-36.2946,-3.49579,-0.842822,4
transient activities,110.0,32.5,-10.2716,2.38629,1.80255,2.15881,-0.499362,-2.43181,41.0106,5.8301,-27.996,37.125,0.83497,7.63273,-4.49774,0.0607677,-0.82981,0.721687,18.0799,-26.4711,28.3909,34.9375,2.07872,-2.79133,0.639893,1.03237,-1.97061,1.65546,-22.2058,-20.8384,-13.7089,2
transient activities,81.0,30.8125,-3.22493,9.18161,-0.0776757,0.210855,0.654708,-0.539066,4.98649,-31.5933,-18.6128,32.75,-0.348327,9.44844,1.709,-0.132671,0.184835,-0.180061,4.74248,-26.8814,-12.3853,30.8125,9.96187,0.671755,-1.7319,0.0179562,-0.0841825,-0.0570303,-5.4831,-7.11692,13.9033,3
Nordic walking,127.0,30.5,-4.60529,8.18411,1.71392,0.288853,0.0419853,-2.58833,36.6956,-20.933,-9.02412,35.5625,0.79342,6.76656,-4.53439,0.132654,-0.381548,0.390771,-0.271592,-21.5272,31.3062,34.1875,2.72016,-1.16174,0.520589,1.75226,-1.90352,3.51704,-17.7766,-28.888,7.70647,2
ascending stairs,142.0,34.25,-5.92391,-1.72844,-0.50466,0.951259,-1.2243,-1.60363,46.8909,36.6021,-2.24991,38.0625,0.65003,4.29421,-2.70907,-0.209093,0.169317,0.260673,35.7595,-45.0079,14.3141,34.1875,9.38039,0.843974,-3.78418,0.490133,0.344364,-0.0438913,-45.7655,28.1414,45.6081,8
ascending stairs,116.0,32.375,-0.159451,3.99749,-4.28637,-0.245298,1.31204,0.62013,-0.292585,-69.6762,-12.0191,37.0,0.35767,5.00424,-3.64598,0.276169,0.823611,-0.667063,41.6981,-37.1264,32.0445,34.9375,9.70155,-0.277728,-1.49714,-0.303417,-0.00944381,-0.069779,-46.0955,27.5703,-14.8539,2
vacuum cleaning,97.0,33.125,-10.6401,4.99498,0.441173,-0.381516,0.114026,0.839547,39.1859,-7.20514,-4.62272,36.6875,1.13609,9.37069,-3.49118,0.00484252,0.178978,-0.232189,11.0569,-23.5505,27.9206,34.0625,9.88029,-0.618703,-1.72473,0.0469119,0.147189,0.0145367,-34.3619,1.48267,-8.9154,3
sitting,80.0,34.9375,-0.137598,6.94111,6.63444,-0.031318,0.036452,0.0252379,3.28518,-20.2833,-30.0315,36.875,0.569357,9.2581,1.8424,0.0200164,-0.0192909,0.00549228,5.13635,-24.1244,-6.32212,34.125,9.02936,-2.72422,-3.61128,-0.0146446,0.0101795,-0.00817915,-35.4502,2.21441,28.7964,5
transient activities,118.0,28.1875,-10.2556,6.68944,3.55869,1.77808,-0.681352,-3.3192,44.1327,-5.80768,-25.6112,31.8125,-2.10329,7.64112,-4.66716,0.255208,-0.899852,0.615307,7.28186,-26.9407,33.6199,30.125,16.7407,-2.26256,-0.949558,-1.60101,-1.54885,5.12877,-43.2477,-6.46545,15.3331,2
lying,76.0,31.5,6.88315,1.68652,6.48792,0.00908281,0.000208415,-0.0104995,8.29959,3.48326,-44.8903,34.0,1.0416,-0.367314,9.70388,-0.00401642,0.0093374,-0.0283996,31.9707,8.1087,-27.86,32.0,0.398319,-9.86061,-1.84179,0.000160662,-0.00873429,0.0184655,-15.3648,23.7027,-4.50151,3
lying,85.0,32.5625,4.04827,0.402252,8.8745,-0.00749712,0.0023274,-0.0139901,24.2043,6.50896,-49.0025,34.5,-0.41356,1.81826,9.24448,-0.00847305,0.00580808,-0.0182458,40.3472,4.64907,-28.8012,33.1875,1.72648,-9.55338,1.37286,0.0407315,-0.0429725,-0.00616866,-20.5308,16.277,-14.4262,4
lying,77.0,33.75,6.8097,2.5587,6.36842,-0.00937811,0.0239164,-0.0183313,7.40454,2.44552,-44.7755,37.0625,1.20906,3.42757,8.57167,0.0166175,0.0265915,-0.0281237,30.7644,-2.8093,-27.035,34.625,-0.445567,-9.34438,-3.97607,-0.0934596,-0.00543088,0.0143114,-12.2257,23.808,-4.15473,2
lying,71.0,33.3125,5.00541,-0.369151,8.31413,0.0448923,0.00403873,-0.0157574,13.5856,23.4626,-40.1601,35.4375,0.568008,-1.31033,9.23371,-0.00178328,-0.0228032,0.0133969,37.0453,16.8922,-27.3426,34.5625,-0.204595,-9.57875,-3.35472,0.0528897,-0.0121733,0.024874,-16.4349,26.6579,-4.92107,6
ascending stairs,152.0,32.25,-10.4652,5.00099,5.48562,-0.528586,0.467405,-2.4098,44.2227,-25.7687,-22.3555,36.875,-0.592522,7.46258,-2.50955,0.564428,1.25637,-1.18986,10.4699,-46.3939,-1.29271,34.875,23.6634,-3.91041,-13.7187,3.59685,-1.51494,6.24088,-43.9477,27.1767,0.968027,2
transient activities,125.0,30.875,4.65094,-7.69168,-0.403116,0.00899486,-1.32251,-0.630599,-14.2015,21.3656,-12.7948,34.0,-0.0533058,9.59577,1.36537,-0.149137,-0.111334,0.0343423,18.087,-25.1225,-2.13722,31.75,9.60029,-0.269544,-2.42438,-0.0026865,-0.0422051,-0.00391251,-24.3672,12.4612,23.7176,8
walking,119.0,33.3125,-14.0088,2.597,5.09426,-0.253271,2.02218,-3.20915,30.4411,-14.0933,-55.7489,37.25,1.02535,11.1519,-7.4098,0.366993,0.477282,-0.160038,31.6179,-55.4447,6.98352,34.8125,18.1686,-8.11388,-6.18537,0.161359,1.62551,-3.00882,-59.3716,-7.32733,-27.0003,1
transient activities,94.0,33.875,-8.96835,2.72185,2.28279,-0.0926459,0.00154007,-0.258286,34.4251,-25.1783,-32.5368,37.875,-0.478626,8.72406,-5.22206,0.0608267,0.00776722,-0.0948419,3.18861,-47.2239,6.07294,35.1875,9.72231,-1.58737,0.787987,-0.0481003,-0.0278846,0.0402156,-48.1532,30.0045,-1.44299,2
walking,118.0,33.125,-5.2018,2.70788,-0.20091,0.148585,-0.843931,2.5586,29.3222,-48.3991,-14.675,37.1875,1.69079,5.39369,-1.10623,-0.356276,0.241571,-0.345218,-15.2547,-48.3104,21.1139,34.625,9.2927,-0.569468,-2.65721,-0.779974,0.178343,-0.203975,-54.9812,-17.0436,29.0557,1
running,166.0,33.8125,-13.394,7.77361,3.23862,-1.23315,0.42079,5.90205,28.8415,-34.3066,-31.8355,36.375,1.81418,14.4268,-1.63673,-1.44574,2.08589,-0.355213,3.12172,-35.6981,32.7878,34.0625,24.7696,3.40625,-3.8738,-0.680793,0.0155571,-1.19306,-23.8762,-26.8191,27.5943,5
transient activities,105.0,34.75,5.13452,5.22926,6.52675,0.0827075,0.0130047,0.0719281,24.1134,-39.0326,-53.188,37.875,0.968167,9.14188,-3.99686,-0.0209144,0.141579,0.0983651,0.394446,-18.8498,49.7347,33.875,9.30378,0.0844337,-3.70307,-0.0532717,-0.080036,0.0113543,-17.3309,-32.4115,31.8788,5
transient activities,127.0,32.0,0.16977,7.28945,3.44342,-0.00664816,-0.337156,-0.462791,27.5054,-35.6881,-30.2563,36.5,-0.756945,7.11292,-4.1764,0.269458,-0.739181,0.582975,27.7622,-27.8159,30.1296,34.5625,0.667096,-6.88155,0.457852,-0.687948,-0.861591,0.169355,-22.7405,-19.2784,-21.8573,2
standing,91.0,34.625,-9.16005,-2.47566,2.18199,0.00298381,-0.0229469,-0.0572846,45.4306,-0.189023,-20.3963,37.625,0.222371,9.77635,0.363038,0.0360999,-0.0629569,-0.0187293,-5.97554,-37.0046,0.159894,34.4375,9.1409,-0.32906,-4.08807,0.00511842,-0.0340328,-0.0463532,-36.9577,-2.26967,10.7837,8
transient activities,137.0,30.8125,-8.16561,-1.85597,0.23194,1.01214,0.134009,-0.825335,44.7114,2.80203,-58.2078,34.25,-0.499579,12.4973,1.46402,-0.0867015,-0.391643,0.48608,-35.5413,-49.9723,1.43785,31.8125,12.5173,-1.35212,-2.27198,0.51505,1.11159,0.896839,-50.2566,0.781044,-9.12316,8
walking,127.0,32.875,-6.43092,6.90751,1.61391,2.9341,-0.342595,-1.43897,39.8965,26.5914,-21.163,37.125,-1.15163,7.6265,-0.816495,-0.00926764,-0.137337,0.279164,11.0229,-23.7172,34.0488,34.4375,24.2776,1.9386,-5.1046,3.17765,-1.54943,6.60181,-54.0749,-13.0958,-5.19631,1
transient activities,91.0,34.5,-5.91911,9.0676,1.76823,2.24277,0.212326,0.155039,13.8047,-26.6868,-8.36106,38.125,2.1633,9.51757,-3.55049,0.0846645,0.0174718,0.0859984,-4.85852,-22.0416,6.59774,35.3125,9.73803,-1.3044,-1.33603,0.0803088,-0.00239112,-0.0285283,-1.14497,-6.53305,25.0141,2
transient activities,125.0,32.625,-7.77627,5.96522,1.13508,-0.0527601,0.0176017,-0.00740336,29.7573,-54.6986,-18.9841,35.4375,0.700534,9.85489,1.06842,0.0170868,0.0238852,-0.0176713,-8.61504,-47.2222,-2.05653,33.4375,9.3493,0.157885,-3.43293,0.000854635,-0.0114682,-0.00519042,-62.9512,13.6748,44.5716,4
cycling,119.0,34.4375,0.208575,5.97366,4.83399,-0.0984654,-0.118016,-0.403438,7.21327,-39.7228,-22.3101,38.0625,1.0466,8.66431,-7.74981,-0.140622,0.2823,-0.315012,-8.20671,-39.3859,12.7073,34.3125,10.7025,5.06968,-1.52006,0.0420823,-0.15866,-0.594903,-40.316,14.5561,27.7722,5
rope jumping,190.0,30.8125,1.26599,-28.2835,2.07884,-10.0205,-1.87902,0.633442,50.5745,-8.64863,-12.4815,34.125,-1.58381,-6.90936,-1.20301,2.48131,-0.352585,-0.72844,20.7091,-41.7319,2.62847,31.6875,-1.63626,15.4069,2.07103,-2.39558,0.507839,2.44009,-34.2863,25.5879,28.7734,8
rope jumping,191.0,30.8125,-0.901476,-3.87801,5.35093,-0.182504,1.56065,0.288887,29.3674,33.1778,-26.2091,34.125,-0.0327876,0.919072,-1.00675,0.124133,0.104128,-0.00376487,22.9716,-40.2699,4.60997,31.6875,0.799361,-1.13543,-1.2358,-2.27929,0.56044,1.4381,-33.3146,23.8771,32.6083,8
walking,96.0,32.1875,-8.87583,2.41276,1.7464,-0.292539,1.34247,-1.52783,12.5974,-34.311,-36.002,36.625,1.15843,11.1995,-0.321607,-0.550026,-0.299293,-0.373097,2.16687,-38.8361,-15.5655,34.9375,17.6101,-2.93361,-3.13608,-1.32804,0.793054,-2.65897,-44.989,1.88999,19.4023,6
transient activities,108.0,28.125,-1.03332,10.0174,1.95368,-0.652919,0.312152,0.168907,1.10127,-25.5241,-7.6244,36.375,-0.57488,9.95896,-0.852349,0.00261923,0.11265,0.0410579,-1.95996,-21.397,11.0554,34.3125,9.77919,1.3074,-0.387082,0.0307917,-0.0337318,-0.0108346,-25.7087,3.90833,26.8118,3
walking,124.0,32.5,-13.0142,-0.807512,2.88838,-2.62627,1.38585,3.21436,40.6359,7.40633,5.68251,37.125,0.161621,7.70165,-0.212133,-0.0751095,0.0673349,-0.441047,18.2345,-32.7514,11.5845,32.8125,1.89487,4.82486,-1.99476,-0.241376,-0.538563,-3.00418,-9.10607,42.292,7.00047,8
transient activities,83.0,33.0625,-8.85232,3.28973,2.24413,0.11659,-0.135835,0.141098,35.0674,-24.2882,-28.4841,36.4375,0.579973,9.66569,0.873248,-0.0189603,-0.142464,-0.093717,20.9811,-31.6197,-5.64865,33.9375,9.8112,0.0645634,-1.6525,0.00200642,0.048141,0.0237302,-53.0912,18.1462,-9.32715,3
transient activities,138.0,32.9375,4.80855,8.72703,-1.41833,0.349971,0.140053,0.380335,-6.63433,-52.6358,-24.5659,36.6875,-0.127921,9.62525,0.124857,-0.162144,-0.0458449,0.106675,26.655,-39.4891,-8.62324,34.9375,4.89341,1.6484,-1.21109,-0.142456,0.157369,-0.751548,-12.4129,-28.4354,22.6724,6
transient activities,189.0,30.8125,7.50422,-0.406772,6.31185,0.430923,0.0752908,-0.224,-17.4064,14.2006,-34.0044,34.125,0.560158,9.66995,1.49241,-0.0767752,-0.012556,-0.0450983,5.47904,-36.2744,7.56767,31.625,9.80977,0.635377,-1.81041,-0.0691485,0.110427,0.060363,-21.7752,12.8256,16.4928,8
transient activities,125.0,31.0,3.24788,9.07822,2.52131,-0.00947095,-0.0346799,-0.0503056,-19.3307,-74.055,-8.72358,34.5,-0.0935137,9.80369,-1.30777,0.0137856,-0.0401774,-0.013223,-2.3867,-71.9849,21.3997,33.375,9.55778,-2.52207,-0.867251,0.0277434,-0.0237261,0.00185504,-96.1818,14.2254,-23.4987,1
Nordic walking,121.0,30.6875,-2.45422,-17.7001,6.99077,-0.242994,-0.461793,-0.854276,4.52843,36.6084,-33.5286,33.8125,-0.309502,14.1725,-1.28717,-0.874856,0.0590211,0.116262,-4.9348,-40.3824,-12.9271,31.8125,11.1381,-9.3258,-5.82547,-0.308655,0.407864,4.27456,-36.2945,-24.688,16.3434,8
descending stairs,132.0,32.375,-4.82347,1.72282,8.73715,-0.642349,0.64102,1.63945,19.9301,2.38208,-66.1602,35.625,-0.916544,9.32938,0.537462,-0.251041,-0.0160176,0.258742,15.2758,-45.9056,-7.53795,33.5,6.4337,-2.31777,-0.244534,0.910822,0.370132,4.22385,-51.93,5.94501,11.0051,4
transient activities,99.0,33.4375,-2.74592,7.80279,3.1286,0.0294779,0.0123386,-0.0382519,-10.5478,-69.6707,-33.89,35.375,-1.56369,3.69219,-9.25234,-0.0537895,0.0295135,-0.0192513,10.5215,-47.3439,65.6344,34.25,9.2759,-2.74276,-1.5248,0.0423524,-0.0461998,0.000894989,-85.501,5.48832,50.3405,1
transient activities,126.0,30.875,-1.92588,8.90159,3.676,-0.173148,-0.685895,-0.447813,5.84166,-26.2707,-4.79352,35.8125,-1.66996,7.47497,-6.7497,0.315261,-0.355786,-0.0576943,-0.544527,-15.2847,21.7494,34.1875,9.49552,1.60296,-3.8263,-0.785116,0.509757,-0.938992,-24.4707,-1.42523,17.9564,2
ascending stairs,147.0,32.5625,-12.7195,3.09886,2.95659,-1.25574,0.991259,-2.05728,60.6141,-17.4972,-9.82354,35.625,1.51122,14.156,-2.84169,-0.174613,1.29706,-0.722845,-6.54918,-47.7018,13.6121,33.5625,16.7839,-0.0969777,-1.1555,-0.0715264,0.426297,-2.16283,-32.7472,-19.5642,23.8671,4
transient activities,124.0,32.4375,-0.841508,-6.93062,7.70986,1.17567,-0.49575,-0.0304926,3.38173,29.4822,-18.5226,37.125,0.793018,9.65267,-0.942734,0.0338226,0.150032,0.0232636,16.7492,-27.7872,3.36777,32.75,9.59505,0.416461,-2.7374,0.133733,-0.0896146,-0.0276302,-26.6512,12.9676,25.8364,8
transient activities,130.0,30.25,2.6405,8.94048,3.55184,-0.0169198,-0.09152,-0.0146359,7.71085,-48.843,-51.9283,33.625,0.216895,9.56945,-2.38558,0.0218714,-0.0297142,0.0303458,26.9362,-57.7426,6.54164,33.125,9.63258,-1.68595,-1.02603,-0.0683524,0.00382078,0.0491248,-58.8518,32.1491,-18.4141,1
transient activities,97.0,33.125,7.97809,4.08211,3.80213,0.573553,-0.0394688,-0.0211201,-36.4282,6.32308,-38.561,37.5625,-0.0905374,9.33529,-3.74562,-0.0265704,-0.00344079,-0.0793567,-10.4379,-48.3545,-3.819,35.0625,9.71494,-1.72664,-0.754807,0.0604322,-0.042512,0.0246093,-47.4281,28.9177,45.823,2
ironing,82.0,32.625,-4.18964,3.15486,8.20299,1.02694,-0.702785,-0.643256,4.6191,-8.30795,-42.1977,35.8125,-0.486093,9.66928,0.892644,-0.0234405,0.0416053,-0.00785869,3.15424,-27.2954,-10.2035,33.5,9.75565,0.173482,-0.997719,0.00114106,0.0213447,0.0226889,-6.7057,-2.67127,23.1203,3
standing,90.0,34.0625,-8.72598,4.82533,0.124031,0.0100565,0.0164769,-0.0275092,22.5008,-26.1314,2.3081,37.4375,1.22269,9.25115,-4.41853,0.108166,-0.0393287,-0.0407224,-9.97856,-24.8892,6.76136,34.75,9.54342,-1.6813,-1.52864,-0.00793745,-0.0200751,-0.0037188,-19.1756,-16.7518,36.6878,2
transient activities,95.0,33.6875,7.5522,2.50189,4.91721,-0.0181001,0.0632335,0.197573,-39.7921,14.4591,-29.8708,37.75,1.31825,7.61966,-6.19266,-0.0917109,0.154349,-0.0316281,-18.7143,-44.8596,10.7695,35.125,9.4818,-0.190968,-2.65762,0.107919,-0.0816832,0.087386,-41.528,21.2999,55.5958,2
ascending stairs,128.63636363636363,33.6875,-9.07701,3.64261,3.31722,-1.40113,0.687691,-0.225651,38.4543,7.86987,-31.4545,37.75,-0.139356,10.4882,-0.342806,-0.276849,1.45368,0.20165,18.5492,-32.3721,7.77746,32.5,12.2401,28.0757,-7.0496,1.54605,-0.575016,2.30009,-42.2038,18.8277,3.64912,7
walking,114.0,33.25,-9.10824,-0.0302803,-0.0962383,1.83129,-2.02822,-3.3695,32.3624,15.2606,-43.1667,37.625,-0.812066,4.73582,0.631728,-0.0146568,0.480064,0.484963,-7.11268,-37.7194,-16.0595,33.25,8.01076,-1.31917,-2.85865,0.892275,0.244853,0.469839,-43.9856,-10.5262,17.151,8
lying,61.0,30.625,0.292497,4.48959,8.6505,-0.00516408,0.00913565,-0.011233,-5.76259,16.5578,-33.3862,33.25,0.733063,2.15408,9.3416,-0.0136436,0.0292965,-0.0411567,34.7599,3.6986,-32.6418,30.4375,-0.915013,-8.80322,-4.79463,0.00148483,0.0586883,0.0206768,-12.4383,29.4122,-7.46318,7
transient activities,111.0,32.9375,-8.31462,6.86614,-0.415515,-1.94092,0.0369187,-0.459266,33.8687,-20.9134,-15.7853,38.3125,1.86073,9.83761,-0.923992,-0.0423818,0.918695,-0.244281,4.2231,-32.4906,9.93452,32.375,9.01339,0.132414,-4.70968,0.531506,-0.279951,-0.290685,-26.2269,3.83321,35.2094,7
transient activities,111.0,34.6875,-2.59553,3.56094,8.34096,0.00255353,-0.0154606,0.0315248,16.7407,-19.5161,-35.4439,38.25,0.810379,9.59885,2.23287,0.0229989,-0.00219082,-0.0239051,-4.7211,-28.4039,-5.80239,34.4375,9.85469,-0.888101,-1.26024,-0.0423319,0.0219243,0.00840063,-22.672,8.89007,20.1819,5
ascending stairs,134.0,33.6875,-3.35903,3.19346,0.556315,3.44662,-2.09789,1.32785,46.6016,2.07931,-60.1758,36.8125,-0.0700943,3.81695,-1.24917,-1.21926,-0.710056,0.606453,40.7821,-42.7242,-3.43042,35.125,5.96677,4.83924,-2.22322,-1.88342,0.0521369,-0.906787,-49.0907,-18.7209,-10.2311,6
lying,64.0,33.5,4.77306,-0.596042,8.19595,-0.0157465,-0.0522983,-0.018368,12.2385,28.5013,-35.8572,35.6875,0.533424,-1.27178,9.34912,-0.00172445,-0.0387992,-0.00354975,36.7791,17.1596,-27.064,34.6875,-0.16367,-9.54198,-3.23876,0.0497446,-0.0553313,0.00713071,-16.5662,26.534,-5.48872,6
vacuum cleaning,98.0,35.3125,-5.62675,-2.57139,11.5107,-1.04354,1.79526,0.459855,21.3531,-21.8705,-33.3393,37.6875,-0.7187,5.27153,-9.16472,0.0619742,0.0563122,-0.275093,-11.1024,-12.0856,30.1577,34.3125,9.76279,0.0786974,-3.35102,-0.0218169,-0.0841587,0.0334551,3.22284,16.6871,46.0774,5
sitting,75.0,33.5,-0.0497839,9.07301,3.28017,-0.0317882,-0.0432401,-0.0132715,3.72505,-24.1449,-16.8858,35.875,0.54519,9.62893,0.9889,0.0175263,0.0430701,-0.0314657,5.24738,-24.646,-4.76734,34.75,9.62795,-0.875351,-2.65187,0.0490922,0.00543465,-0.0104191,-18.2923,-3.45505,11.8435,6
transient activities,122.0,32.0625,-7.88897,4.66027,3.60099,-0.0950405,-0.378265,-0.051652,47.4126,3.72205,-19.8753,36.6875,-3.23077,8.19526,-6.78032,0.151349,0.0542004,-0.281884,-3.44853,-28.371,33.7003,34.0,10.3154,-0.37264,0.362045,-0.53936,0.428065,-0.493251,-38.687,-10.1588,-9.74688,1
Nordic walking,129.0,34.625,-1.28058,1.66253,0.900512,0.423243,-0.302985,1.93039,-0.258876,-36.2341,-40.9511,38.375,0.396961,5.03065,0.265463,-0.0904192,-0.251711,0.0470142,28.5516,-40.5941,-5.50167,34.25,7.29418,-1.74204,-1.6671,-0.456937,-0.450295,-0.515451,-49.6067,5.02443,0.0932899,5
sitting,71.0,34.3125,-3.02264,-5.20677,7.63288,0.0614357,-0.00112342,0.0285787,10.1838,12.4813,-31.5565,37.625,0.30422,9.73975,0.558244,-0.0406559,0.0151375,0.00040589,5.75812,-25.4396,-3.77225,33.875,9.20144,2.61932,-2.52357,-0.0146106,0.0110181,-0.00580798,-18.5566,15.9088,25.0105,8
cycling,82.0,29.75,-9.37746,3.91052,3.31181,0.00704552,0.318854,-1.05811,37.3989,-25.9402,-13.6623,35.3125,-0.465546,5.01294,-8.30743,0.099899,-0.821042,0.320338,-8.95392,-20.1712,40.0888,34.3125,11.3875,-1.01141,-1.28235,-0.532137,0.0513255,-1.15295,-27.8127,-1.28105,20.4593,6
Nordic walking,104.0,30.6875,-3.33891,-16.8641,6.3589,-0.424828,-0.539769,-0.776444,41.3684,22.2334,-31.81,33.9375,3.29751,11.8048,1.10913,0.249407,-0.282709,-0.102665,-12.1894,-42.0782,14.6689,31.8125,16.5397,-22.6882,3.72871,1.74725,-0.449776,-1.03034,-44.4981,-16.716,5.1006,8
walking,125.0,32.5625,-14.4882,-1.58296,-0.248562,2.00586,-1.28077,-3.33641,47.0868,-8.32793,2.87776,37.125,0.942973,11.0151,0.13974,0.291689,-0.194495,0.0535762,11.9637,-39.3592,15.3855,32.8125,9.83142,-0.897954,-4.69489,0.770257,-0.0442555,0.670831,-36.8304,21.4448,21.5358,8
lying,83.0,31.6875,7.10428,1.26677,6.41568,0.024862,0.00707247,-0.0142499,-2.42436,23.2828,-55.3168,33.5,0.656874,0.00937406,9.5408,-0.00543514,-0.07062,-0.0104,46.4622,12.4889,-46.5112,32.125,-0.0416757,-7.23188,-7.26516,-0.0184131,-0.0292808,0.0111343,-18.9824,44.1856,-0.292523,1
standing,100.0,33.0625,-9.27253,2.26925,2.31825,0.00751524,0.00499247,-0.017886,32.0082,-16.7238,-23.0247,35.125,0.66222,9.7797,1.06797,0.00133618,-0.0309281,-0.0240622,6.48775,-29.5838,-12.9089,33.875,9.59106,1.54772,-1.77973,-0.00159505,0.0186431,-0.00885317,-2.97744,-3.92905,22.819,4
ascending stairs,146.0,34.25,-3.39273,-4.90013,3.43118,-2.0376,-1.04261,-1.86409,50.0824,15.3317,-7.50789,38.0,-0.989616,4.60897,-1.50073,0.616179,1.11601,-0.797735,1.36705,-40.3985,26.4571,34.1875,7.16503,-3.70309,-3.19983,-0.0130513,0.44786,1.52887,-25.5994,32.2076,19.2935,8
ironing,87.0,34.3125,0.778711,6.93646,6.9176,0.405343,-0.163022,-0.746755,-14.671,-31.2047,-36.3214,37.625,-0.739758,9.14012,-5.07326,0.288078,-1.083,0.423964,-2.13501,-34.2857,3.68066,35.0625,9.73495,-1.68377,-1.3723,-0.122303,0.0957952,0.106562,-37.7545,13.791,37.5369,2
transient activities,90.0,33.25,-9.88039,3.14417,2.03678,0.743981,-0.363516,0.786188,26.4103,-23.8152,-9.28458,36.875,0.549043,10.0726,-0.212821,-0.304449,-0.662466,0.16644,-11.783,-27.6992,2.93027,34.25,9.94258,-0.909029,-3.42023,-0.33601,-0.397916,-0.813982,-33.6513,8.97647,23.465,3
cycling,126.0,31.5,0.0442879,-0.712329,8.01005,-0.612947,0.539216,0.12913,0.341346,-4.68971,-67.3386,36.0,0.384046,5.8871,-6.70732,-0.48461,0.125178,-0.392421,-7.36968,-57.8149,29.6786,33.75,9.54657,4.20118,-1.21781,0.402134,0.16907,0.338649,-61.4609,11.1483,25.2009,1
cycling,136.0,28.5,-12.8587,-3.04206,3.47556,-1.70495,0.953722,-0.419903,38.1644,23.6417,-37.3238,33.875,0.254956,6.21404,-8.53061,0.382368,0.401521,-0.421565,29.3118,-29.8203,24.1944,32.75,11.9195,0.123689,-1.20676,0.637312,0.115211,-0.789278,-44.4442,15.166,-9.82856,4
transient activities,107.0,34.4375,-12.2071,-1.6068,-0.907086,3.69791,0.11702,-1.54452,45.028,-6.84887,8.90963,38.125,-2.01652,9.47581,-0.605849,0.308671,-1.37029,0.0587667,24.0518,-30.2703,23.4553,34.4375,9.94036,-0.919071,-2.18532,-0.0333133,0.0639084,0.296343,-40.1921,29.8538,22.0816,8
ascending stairs,154.0,32.5625,-4.364,1.7184,0.199851,0.747655,-0.395427,0.419214,60.3414,-17.3668,-22.0284,35.625,0.604611,4.42308,-0.387056,0.405216,-0.510623,-0.0894118,13.3598,-45.7293,14.7264,33.5,1.10273,-5.66362,-0.239851,1.70976,-0.285757,-1.08719,-28.5155,-26.2103,24.5988,4
lying,96.0,34.6875,0.398404,7.166,6.79566,0.00101675,-0.0109116,-0.0143063,-8.89658,9.40337,-33.3364,36.375,-0.115753,2.15437,8.97774,-0.084078,0.0191714,0.0339504,38.7004,3.03343,-28.9445,34.0625,-0.415052,-9.19049,-4.24684,0.023614,0.0332997,0.00159122,-14.3188,28.3502,-6.47574,5
Nordic walking,128.0,30.4375,-12.6273,8.56584,3.40138,0.786165,-0.629632,-3.23606,25.4523,-23.7545,-35.0804,35.4375,-2.62985,13.0195,-11.3929,0.533681,-0.236456,0.0811565,24.155,-29.8378,20.0207,34.125,9.73116,10.4965,-5.11394,-2.58778,-0.0669581,-3.28636,-29.1318,-13.7701,-12.4629,2
lying,74.0,32.625,4.78721,0.278573,8.42413,-0.0362734,0.0410559,-0.0164581,19.9816,6.73393,-49.6515,34.5625,-0.453962,1.81786,9.16631,-0.00192475,0.0601589,0.0068603,40.0876,4.78762,-28.8038,33.25,1.80993,-9.5944,1.68268,0.0226664,0.0286654,0.0196633,-20.3879,15.6266,-14.2831,4
rope jumping,153.0,30.8125,-30.7773,-3.62862,23.8769,2.57704,8.09097,5.79499,41.6071,20.8579,-28.3901,34.125,-0.928187,14.2853,-1.60851,-2.62068,-0.0827519,0.34006,21.0681,-40.9806,11.369,31.6875,26.7131,18.1905,-21.1566,1.9156,-0.378156,-5.66664,-31.7507,28.4343,32.7503,8
walking,120.45454545454544,33.0,-6.27689,0.0509615,-1.24721,-0.696057,-1.39103,-0.992134,36.0474,29.8491,-17.1474,37.5,0.472826,11.6709,2.22002,0.314731,0.444444,0.0448468,15.5784,-40.0085,15.4144,33.125,12.6697,0.444065,-3.82514,0.741287,0.779721,1.78604,-32.7548,33.3407,20.5435,8
transient activities,119.0,32.875,5.06221,7.8793,-2.64327,-0.148975,0.0117548,0.0237396,-26.6842,-27.7327,-15.3589,36.625,-0.5347,9.59176,0.543527,-0.0356048,0.00589544,-0.0243308,9.7618,-33.5658,-20.3368,34.9375,9.80811,-0.325486,-0.376652,-0.0701277,0.00363125,0.0270616,-61.6518,15.7485,27.5539,6
ironing,89.0,34.0625,-5.63209,7.32907,2.77907,0.243106,-0.243686,0.242048,25.7453,-59.4402,-7.00515,36.5,1.51244,9.00086,-2.32154,-0.0305134,-0.202663,0.0238246,-14.6401,-37.7115,-4.69053,35.0625,9.37729,-1.01841,-3.54111,0.149402,0.0145345,0.104152,-27.6657,18.1042,47.8109,6
walking,100.0,32.125,-9.16501,4.41586,0.619172,1.90233,0.516063,-0.583284,49.0933,-1.01901,-41.0021,36.625,-0.501986,9.13009,-0.887055,0.296402,-0.310891,0.191305,33.7435,-45.4141,-19.1156,34.9375,7.69903,0.538925,-2.33312,1.52144,-0.800046,4.7785,-47.4519,-0.137155,-11.0979,6
transient activities,115.0,29.8125,-5.06427,7.90279,3.78631,0.279537,-0.190734,0.288519,32.3812,-12.0231,-15.8362,35.0625,1.02924,9.62479,0.610474,0.205988,-0.0438644,-0.0136589,1.31416,-19.6161,10.4052,33.0625,9.27903,0.61334,-3.3593,0.0159437,0.0559771,0.0419584,-39.4313,-7.82155,7.23559,4
walking,121.0,33.0,0.540084,-10.3871,-8.384,-0.207597,0.212592,0.395449,19.3443,48.3865,18.3379,37.4375,-2.59766,12.2514,-2.484,0.0106636,-0.401377,-0.132827,-4.97731,-52.5345,16.4705,33.125,8.99444,-7.73351,-3.88926,0.538867,0.530591,2.88364,-46.1829,16.7589,20.6574,8
descending stairs,115.0,34.125,-16.8901,-1.15328,-0.978763,-0.46816,-0.489138,-0.432781,50.2683,15.9265,-30.7399,38.0,-0.774911,31.4446,-3.17163,0.535921,0.302249,-0.474438,0.440224,-47.0294,-12.5699,34.0625,30.9489,-19.7066,-9.80273,-2.58946,-1.51616,-5.9444,-46.1063,3.37865,25.07,8
transient activities,124.0,30.875,-9.50366,-1.07264,1.78724,-0.639344,0.00100555,0.248449,36.1183,6.64901,-2.7026,34.0,0.960744,9.80618,-0.436822,0.337408,0.634371,0.197346,14.11,-27.6938,7.15599,31.75,9.99587,-0.620378,-1.60776,0.189581,-0.424244,-0.548166,-27.6443,10.6943,23.9918,8
ironing,89.0,35.3125,-2.29481,7.42731,-4.48387,0.00685517,0.913017,-0.023677,-4.63377,-34.9768,4.71891,37.3125,-0.661104,10.0698,-1.20276,0.0740861,0.305003,0.0262093,1.02543,-37.6392,-9.94011,34.4375,9.33969,-1.91411,-0.757492,0.10726,0.000781799,0.119667,-44.1748,14.6462,36.6939,5
ironing,88.0,34.375,1.76659,3.00126,8.9855,0.597919,-1.60805,-0.0864792,-19.0488,-10.8182,-36.3988,37.6875,-1.40155,8.80908,-4.23231,-0.0761547,-0.246488,0.173935,2.38708,-33.4114,1.54405,35.125,9.6284,-0.59265,-0.06812,-0.089669,0.00949479,-0.0186236,-42.0449,5.50797,32.9038,2
transient activities,120.0,32.0,-1.3958,4.56933,-0.842952,-2.45372,-0.810891,0.0514775,4.64172,-24.4019,-43.1816,36.5625,1.69507,6.28029,-3.6259,-0.0168942,-0.699913,0.734399,35.1856,-30.9645,5.23204,34.625,13.3064,1.36916,-1.35462,-0.865087,0.25859,-1.337,-45.6343,12.5826,-25.7863,2
walking,115.0,31.125,-12.7181,4.74726,4.83693,-0.463946,1.26828,-0.691013,40.9678,7.75285,-8.06949,36.9375,-1.52195,14.6094,1.47736,0.0613738,-0.136669,0.464878,2.58062,-29.6367,3.51333,34.5625,8.70444,-31.1146,4.78116,0.318298,-0.589572,-1.02911,-41.7574,22.0772,13.7687,3
descending stairs,158.0,33.25,-7.30105,2.9667,5.65534,-0.0244624,0.00346741,0.0376322,9.42253,-13.1466,-2.79094,36.6875,1.77488,9.80679,0.0425763,-0.0718802,-0.0837936,0.0206924,-4.17357,-18.1029,-9.52319,35.0,8.63642,-3.13469,-4.1916,0.000909588,-0.0105581,0.00348338,-37.481,19.5662,28.3437,6
ironing,96.0,33.25,-5.21504,7.12828,6.1344,0.0362956,0.356507,1.14362,31.174,-94.4568,-46.3236,35.125,-0.313825,9.79755,-2.31849,-0.0826028,-0.174461,-0.0984243,-20.2917,-57.1207,-11.2124,33.875,9.81104,-0.820684,-0.180601,-0.344941,0.137365,-0.152012,-60.7276,-17.0849,39.2521,1
transient activities,82.0,33.0625,3.46114,9.31865,-0.093449,0.926259,-0.271937,-0.213699,1.80329,-34.7083,-7.63156,38.25,0.840135,10.0309,-0.672064,0.194518,0.056815,-0.25,-0.859092,-35.3967,8.50562,32.3125,9.22662,0.275715,-3.82082,0.0781899,0.011464,-0.0315549,-45.4823,18.1306,17.3961,7
standing,77.0,32.75,-9.14793,2.53629,2.58863,0.0846304,-0.0108712,-0.0357741,31.8942,-15.5928,-11.2205,35.3125,0.505257,9.65751,-0.367149,-0.0351183,-0.00565744,-0.0211381,0.62346,-31.8245,-6.59181,32.125,9.51917,-0.837635,-2.53745,0.043951,0.0315518,-0.0164896,-10.1878,-7.59868,9.89118,7
transient activities,116.0,34.6875,-3.43933,10.1321,-4.27922,-1.24606,-0.777144,-0.702082,2.64177,-31.1456,5.20587,38.25,1.9515,9.43548,0.898844,0.0329103,-0.151054,-0.141856,-5.00311,-31.2351,-1.69916,34.4375,9.71235,-0.318908,-1.11088,-0.0551592,-0.0335558,0.0196627,-22.885,6.96994,20.3252,5
transient activities,129.0,32.9375,-1.47218,6.71132,5.22968,0.076701,0.254198,-0.151825,2.61556,-27.7014,-41.9273,36.6875,-1.14705,9.35855,-0.822042,0.224934,0.227097,-0.063554,11.5204,-37.1191,-14.3822,34.9375,12.5094,0.312629,-1.54919,2.1224,-1.01222,3.45863,-59.2464,18.8253,20.1835,6
transient activities,136.0,32.3125,-10.3932,0.965515,4.03779,-0.65827,-0.55628,2.01839,18.1509,5.59933,-36.9114,35.625,3.51253,10.0813,-3.06323,-0.274321,1.13222,0.447231,22.1904,-29.777,-12.3756,33.5,10.4443,5.17837,-5.34375,0.179699,0.343871,0.715455,-46.4004,-2.25328,-12.3682,4
transient activities,145.0,31.5625,-2.78964,9.05993,-0.571081,0.00114085,-0.0677318,0.017285,15.2184,-22.4517,11.3423,36.6875,-1.31718,9.74009,-0.168108,0.0199896,-0.00456852,-0.0276298,13.2277,-22.6642,20.8452,34.4375,9.67878,0.201883,0.236182,-0.0226026,0.0253724,0.0163623,-18.7926,-13.0615,6.6458,3
transient activities,116.0,34.625,-1.68783,5.75072,7.92381,0.177587,-0.188938,0.0875381,12.1834,-24.8545,-31.5966,38.25,1.34582,9.99403,-0.314294,0.0558735,0.0871092,0.085661,-5.70116,-31.3419,1.6807,34.375,9.8955,-0.661169,-1.18405,-0.00958716,-0.0176684,-0.0115779,-21.8807,7.82149,20.4696,5
walking,95.0,33.0625,-6.49289,7.33666,-1.352,-0.0645496,0.0161374,0.0375177,36.7075,-29.9883,1.32412,38.1875,-0.300626,9.45311,-3.13027,-0.0196339,0.00266659,0.00955709,4.15201,-37.0107,18.42,32.3125,9.44534,0.417409,-2.73895,-0.00985245,-0.000466285,-0.000388989,-59.3952,23.7473,27.6944,7
transient activities,112.0,27.875,-8.96173,1.82434,3.74844,-0.0174919,0.0961229,-0.632777,35.7079,-21.5784,-30.5453,31.375,-1.80087,9.00306,-3.58192,-0.0266059,-0.228467,0.0751318,12.9584,-41.066,5.73919,29.8125,9.46367,-1.99429,-0.331238,0.00659041,-0.0428261,-0.0291015,-38.5513,6.50778,22.9836,2
transient activities,81.0,34.25,-11.2438,2.02752,3.25172,-2.1667,1.34849,-1.14601,29.3206,-1.81286,-23.1097,37.5,0.87328,10.7446,-0.906109,0.192708,0.0201307,-0.120568,10.5724,-24.727,8.10157,33.1875,2.70616,-3.39648,-4.79105,-0.859806,0.0450635,0.466505,-27.9218,-29.8166,-9.43459,7
transient activities,149.0,28.8125,6.5894,6.99071,-3.07924,0.128489,-0.381172,-0.417325,-7.24629,-21.0882,-1.81028,32.3125,0.929702,8.57745,-3.957,0.159248,-0.485054,-0.186819,3.68241,-20.7013,12.1226,30.4375,9.92588,0.101178,-1.57437,-0.867856,0.270457,-0.0985737,-34.223,18.8647,11.321,2
Nordic walking,108.0,30.0625,-3.16012,0.799986,4.60854,-3.88039,1.30704,-3.22781,31.8025,-29.6182,-22.0275,35.5625,-2.05635,8.23634,-5.71371,0.0613084,-0.760333,0.0383853,6.96221,-41.7468,8.5961,34.4375,18.7636,0.635477,-4.03396,0.143011,1.26904,-3.89369,-21.9062,-28.6547,6.04492,6
transient activities,139.0,30.875,-9.44839,-1.68428,1.32828,0.026366,0.0282512,-0.0954351,38.059,12.7474,-6.94294,34.0625,0.411055,9.92585,0.288528,0.0290224,-0.0252711,-0.0527645,15.5555,-34.7081,4.10378,31.6875,9.18021,-0.177744,-4.05002,0.0478571,-0.0102957,0.0311802,-20.6916,5.86495,31.9644,8
running,126.0,31.0,0.0674752,9.88675,1.04691,0.486915,0.321019,-0.174392,-6.92557,-78.8253,-6.83395,34.3125,-1.99734,9.08634,-2.50156,0.0230493,0.0446036,-0.0611079,7.8517,-73.0132,23.1472,33.375,9.76187,-1.8057,-0.406529,-0.0155791,0.00486761,0.0217026,-97.0805,5.13038,-25.8163,1
walking,116.8181818181818,30.75,-13.1511,4.32832,0.0594239,-2.97163,-0.346682,4.25106,1.85745,-33.7734,-29.5947,37.0625,0.0272315,10.5084,2.7191,-0.38257,-0.00260305,0.0615258,3.15746,-32.718,-15.972,34.625,12.599,-1.09911,-0.767715,-0.475443,-0.516448,-2.01912,-39.5622,13.6276,21.2111,3
Nordic walking,128.0,29.1875,-3.51867,4.57545,2.20422,-0.491677,-0.474183,2.24799,6.00437,-41.8923,-22.8194,34.5,0.261878,4.53711,-0.393636,-0.210095,0.141735,0.0750749,-3.93434,-39.5176,-11.938,32.875,8.97808,-0.525106,-3.20096,-0.388202,-0.252203,-0.458271,-39.3344,19.7706,22.6636,4
transient activities,99.0,35.125,-8.73706,2.60762,2.44059,-0.242399,0.0239373,0.699747,35.0714,9.66397,-31.0649,37.75,0.758462,9.85051,0.449951,-0.0157511,0.174485,-0.0443286,24.2152,-31.815,15.0049,34.25,9.63659,0.148837,-2.54237,0.00440634,0.0178598,0.0124242,-21.7126,-10.3981,0.776634,5
running,117.0,33.8125,-17.1688,4.54559,-0.386365,-2.08263,2.64774,5.92775,-0.978536,-41.0222,-21.367,36.625,0.235223,9.73288,-0.488449,-0.212692,1.58338,-0.491508,-5.37415,-37.6586,-12.2406,34.0,24.9246,-1.08334,-2.84102,-0.624463,0.428924,-0.47141,-41.0761,8.93304,29.0525,5
transient activities,127.0,33.8125,1.65973,9.45918,1.30313,0.016836,-0.0517319,0.0113217,-19.2726,-35.4654,2.68591,36.5,0.285345,9.80198,-1.37835,0.0152886,-0.0343383,0.0173017,-20.7643,-36.5485,1.43369,34.875,8.97557,-3.75661,-2.67927,-0.0261242,0.0229248,0.00451398,-38.7212,9.51814,21.0366,1
sitting,92.0,33.8125,-1.48926,8.96961,3.18198,0.181603,0.143706,-0.01197,5.93455,-27.3552,-5.50064,37.3125,1.15063,9.10182,-4.26447,-0.0401171,-0.293477,0.153312,-1.55078,-20.1839,11.3084,34.6875,9.63603,-0.812347,-1.07001,-0.226737,-0.182648,0.0879216,-6.23029,-2.51606,26.8315,2
walking,122.0,31.4375,-14.1674,6.56191,-1.38737,-2.81732,3.10506,2.93897,52.9943,-3.98744,-12.5,36.3125,0.775972,8.38073,-5.27565,-0.707207,0.380342,-0.939054,-8.0529,-37.2784,22.5864,34.4375,10.932,-2.23424,0.0326153,-0.548172,-0.0431457,-0.938039,-40.7692,15.3523,27.5521,2
ascending stairs,128.0,34.1875,-10.956,4.52113,2.32392,-0.888931,0.0269969,-1.36083,37.4239,-15.0855,-35.4713,38.125,-0.126953,12.7051,-6.58386,0.965245,0.882566,-0.499159,22.7477,-32.1074,4.55146,35.3125,16.3943,43.0484,-7.21569,1.83049,0.0275119,0.318237,-37.6286,13.3392,-4.05863,2
Nordic walking,122.0,33.0625,-1.24654,6.75573,1.923,-0.275761,-0.0170017,3.00173,39.6682,-7.82154,-17.32,38.375,1.17807,4.64747,-0.338675,-0.587187,-0.499091,-0.456259,17.4057,-10.0453,32.8825,32.5,9.11993,-0.969386,-4.70175,-1.28148,0.397255,-0.181973,-31.889,-20.1689,7.98561,7
lying,79.0,34.875,0.597586,7.61181,5.91193,-0.00483585,0.0212564,0.0033677,-8.87015,7.2925,-33.0612,36.625,-0.143326,1.8182,9.36554,0.0551933,0.0487698,-0.0264735,38.9286,4.95951,-28.9538,34.125,-0.348607,-9.11246,-4.55536,0.0230963,0.0178051,-0.00485735,-14.8161,28.2492,-5.48455,5
walking,95.0,32.0,-12.6195,2.5351,-0.580849,-0.487768,-1.80515,3.12925,45.4773,0.434573,-12.1326,36.625,2.3045,9.1645,-0.0231828,0.0897539,-0.594577,-0.0689011,4.04473,-32.1081,20.3654,34.9375,9.77534,-0.685493,-2.76731,-0.70317,0.0770382,-1.07439,-38.0074,-17.1412,14.343,6
rope jumping,177.0,30.1875,-1.60531,0.55238,3.74746,-0.113344,-0.556442,-0.641726,66.8972,-21.024,5.67374,33.8125,-0.108882,2.84727,0.108512,0.420613,-0.0601664,-0.0333514,-33.8749,-54.7438,22.7839,33.125,-1.56423,3.48238,-2.33062,0.619433,0.228664,-1.15535,-49.5239,-33.6768,37.6219,1
transient activities,114.0,27.9375,-8.87137,2.53727,2.93915,-0.693438,0.416845,0.500147,35.6484,-24.9551,-21.5542,31.5625,-0.148893,9.02978,-4.40394,-0.0311672,-0.0293758,-0.0578584,6.5113,-38.8588,7.85075,29.9375,9.17644,-3.25082,0.329637,0.0348848,0.00828206,0.0518015,-35.3843,19.2202,20.9891,2
transient activities,116.0,31.25,-0.84339,9.27705,-0.0423244,2.20247,-0.297245,-1.83896,16.7862,-24.2572,-16.1228,36.8125,1.31207,13.2226,-1.75807,-0.530698,1.2424,-0.212044,-6.17244,-26.5789,6.57168,34.5,25.4601,18.3285,18.8085,1.87789,-0.882305,-2.27238,-23.4482,16.7759,23.8361,3
walking,99.0,32.5,-12.912,3.61008,0.565764,-1.33507,-0.498328,3.17541,38.098,-33.0495,-11.3896,36.6875,1.76015,8.56164,-0.340853,0.0592968,-0.480204,0.0495911,-8.68755,-38.0504,-13.9535,35.0,9.67078,-0.676345,-3.81035,-0.163625,-0.0239902,-1.32678,-35.5943,22.7012,31.8925,6
ascending stairs,121.27272727272728,34.3125,-3.9829,-1.94756,2.1423,1.12558,0.191839,-0.172727,41.1667,18.0459,-0.81346,38.0625,0.394112,2.79228,-2.20545,-0.232865,0.0823379,-0.257637,21.532,-32.3354,-9.12252,34.25,0.838076,-6.39437,1.11261,-1.01818,-1.08139,-3.37525,-24.6143,5.97538,46.701,8
transient activities,121.0,32.125,-3.81454,13.1398,4.98047,1.08385,-0.195203,-0.470706,-0.0848546,-26.9404,-47.1757,35.625,-1.06117,14.4494,0.324595,-0.035381,0.418265,0.0115329,35.5277,-31.9348,-22.7048,33.5625,2.96759,-5.21729,-0.532213,0.0615019,0.0173263,3.19031,-47.3278,0.17546,-33.9328,4
ascending stairs,97.0,33.75,-4.23183,2.05332,-0.415097,-0.963725,-0.712581,2.69455,44.3381,-11.7015,-64.287,36.8125,0.184913,8.28275,-3.35,0.707788,0.181867,0.123308,34.3329,-46.1259,23.7579,35.1875,7.43535,0.427001,-2.37372,0.0742869,0.306325,-1.96585,-63.4795,-28.9282,-4.02926,6
Nordic walking,130.0,34.6875,-0.618675,-1.38688,-0.079958,-0.479345,0.283366,1.12617,30.5694,-56.4626,5.69653,38.4375,0.0545878,2.53948,-0.778108,-0.416575,0.0322625,-0.0981266,-13.9845,-49.3861,36.5536,34.25,9.35593,1.21,-2.08876,-0.503274,-0.253128,-0.756347,-36.0885,-13.6716,44.556,5
ascending stairs,102.0,34.75,-11.8106,2.55236,2.04835,0.141912,-0.294792,-0.777011,52.6967,-22.77,9.38435,37.875,-1.80097,11.695,-6.4173,-0.3394,-0.242604,-0.394072,-8.44761,-32.2923,20.7026,33.875,14.1966,-10.3035,-4.66894,-1.75994,-0.0823127,-1.47489,-10.992,-17.5307,33.5858,5
transient activities,116.0,33.1875,-4.75448,7.64579,0.789804,-0.966391,-0.062346,0.192832,3.58172,-70.8636,-30.2457,34.875,2.54101,8.65009,-3.57955,0.0402975,-0.25052,-0.060948,-20.8491,-67.0502,-10.8666,33.625,9.79216,0.200851,0.275941,-0.0585372,0.0230998,-0.0105367,-99.7049,-5.49586,34.372,1
transient activities,94.0,33.5625,7.46008,2.01333,-3.08789,-0.374179,0.550138,0.0398495,-30.0725,18.182,26.0706,37.75,0.250776,9.40034,-5.09488,0.0833345,0.190783,-0.100594,-15.1524,-47.457,0.768642,35.125,9.46603,-0.680705,-3.11781,0.133496,-0.0578203,0.122338,-39.5431,24.0868,56.4757,2
sitting,80.0,32.875,-2.78986,4.88658,7.91022,-0.0449577,0.00995256,-0.01674,10.0596,-18.6563,-25.462,35.0625,0.535366,9.65558,-0.637644,-0.147553,-0.0257926,0.0575036,2.95409,-24.0515,0.994505,33.8125,8.83394,4.53768,-0.0309265,0.0286585,0.00324015,0.0178651,-2.16583,-4.9932,24.9506,4
ironing,93.0,34.75,-3.23196,-7.84315,5.40637,-0.0368497,0.876487,-0.946256,6.28313,16.8977,-47.8481,38.125,-1.64977,10.2327,0.134033,-0.0352416,-0.463318,0.297543,-11.5086,-36.9209,-7.91633,34.75,9.54693,0.267714,-3.08428,-0.0436417,0.139105,0.018949,-39.7883,-20.3217,-2.82124,8
ironing,91.0,35.375,1.90875,9.15027,0.923025,1.84544,0.00149593,0.253342,-5.75748,-35.0606,-24.2806,37.5,1.81776,9.88301,0.197989,-0.218119,0.383496,0.286402,7.03202,-34.7576,-17.6699,34.5,9.58616,0.190898,-3.00622,0.268658,-0.290421,-0.0401867,-46.3931,32.8633,20.9216,5
Nordic walking,92.0,31.0,-3.6153,9.61754,1.64694,-0.0405599,0.137857,-0.111154,24.911,-24.0297,-9.44915,36.125,0.502826,10.8988,-0.564833,-0.0761256,0.0939789,-0.0775832,3.55441,-25.7629,12.9938,34.8125,9.78122,2.7625,-1.90108,-0.000596596,0.0531186,-0.0463387,-27.3983,-10.6157,5.43734,6
sitting,78.0,32.9375,-3.23204,6.05718,6.89897,-0.00903905,0.00543785,-0.0214302,11.4373,-21.9535,-21.3766,35.0625,0.530216,9.72092,-2.10935,-0.0402991,0.0144557,-0.0400066,3.02966,-23.9286,4.09643,33.8125,9.73133,1.84305,-0.853972,0.00614882,-0.00739541,0.012192,-6.37752,-6.20648,22.526,4
transient activities,123.0,33.625,-7.72185,6.02773,8.14039,-0.269105,-2.02705,1.30083,39.0945,-40.4164,0.332672,36.0,0.727942,13.0046,-0.877367,-0.403193,-1.26869,1.07203,-28.6881,-38.5008,12.4187,34.375,24.4883,-15.9739,3.03535,-2.77317,0.823295,-1.91099,-26.4406,-19.0203,52.9642,4
ascending stairs,116.0,33.8125,-6.11382,2.1834,-0.25129,0.776855,-0.136683,4.04191,39.3328,-54.3417,13.037,36.8125,1.21556,5.12766,-1.69479,-0.0555827,0.0773311,-0.342131,-18.8574,-41.7058,32.9582,34.9375,8.04992,1.33124,-1.98714,-0.820648,0.219637,0.860539,-21.3475,-37.993,21.7493,1
transient activities,128.0,27.5,-14.2137,20.2931,-22.9873,-2.3386,8.89112,-1.35849,26.8926,-20.54,-14.3299,32.375,-0.135793,11.5514,0.970314,1.07552,-1.35052,-0.569455,5.68858,-26.3534,9.06385,32.75,10.5758,1.85902,1.19984,-0.561734,-0.213162,-0.217313,-43.1343,2.1008,-8.67414,4
walking,101.0,32.9375,-10.5659,3.32889,5.10488,0.10996,0.559305,-0.537614,36.0446,22.7838,-5.29371,37.6875,-1.24529,12.5699,0.714578,-0.0421576,0.510264,0.384402,0.455848,-26.6899,22.1428,32.1875,15.5384,16.478,1.89321,-0.499393,0.811845,-3.25215,-38.519,2.85017,17.8638,7
transient activities,135.0,33.125,-5.89797,3.41038,1.36427,-0.125925,1.09464,-1.34397,47.1268,-15.399,9.61339,36.6875,0.38459,7.69964,-0.401692,1.15017,0.211899,-0.13634,-21.7978,-36.7021,22.3268,34.9375,0.457243,3.77364,-2.35028,3.43291,-0.716755,3.48218,-20.634,-11.7579,38.0838,6
walking,123.0,31.1875,-13.2269,1.67898,4.95512,0.363353,0.801103,-5.0429,39.4514,-36.0942,-18.7088,36.125,0.312922,7.10143,-5.35733,-0.0580542,-1.08159,0.922371,3.51833,-45.3023,14.661,34.3125,2.23063,-8.07858,1.71618,0.0824507,-2.1581,1.96866,-37.7573,-25.3433,9.88816,2
