activityID,heart_rate,hand temperature (°C),hand acceleration X ±16g,hand acceleration Y ±16g,hand acceleration Z ±16g,hand gyroscope X,hand gyroscope Y,hand gyroscope Z,hand magnetometer X,hand magnetometer Y,hand magnetometer Z,chest temperature (°C),chest acceleration X ±16g,chest acceleration Y ±16g,chest acceleration Z ±16g,chest gyroscope X,chest gyroscope Y,chest gyroscope Z,chest magnetometer X,chest magnetometer Y,chest magnetometer Z,ankle temperature (°C),ankle acceleration X ±16g,ankle acceleration Y ±16g,ankle acceleration Z ±16g,ankle gyroscope X,ankle gyroscope Y,ankle gyroscope Z,ankle magnetometer X,ankle magnetometer Y,ankle magnetometer Z,PeopleId
transient activities,121.0,32.0,-2.33143,9.96777,3.74331,-1.46336,-1.65717,-1.56391,15.4873,-33.6665,-40.1652,36.5,-2.38913,8.65367,-5.41132,0.290412,-1.9447,0.320496,21.9629,-38.1313,18.5053,34.625,13.0633,6.48223,-4.28306,-4.21318,0.258344,-1.88857,-55.2972,-23.8911,5.21973,2
cycling,122.0,32.9375,-2.66672,2.03796,7.69075,0.0979338,0.178168,0.287194,16.3055,5.81009,-54.3628,38.125,0.605229,6.93834,-7.05522,0.17847,0.197373,-0.370436,10.6105,-42.2743,14.2646,32.3125,9.17447,0.622487,-4.40235,0.433236,-0.17064,0.148064,-38.0583,24.9809,21.1019,7
cycling,124.0,32.0,-1.16909,8.14833,4.95996,0.26335,-0.0572557,0.107114,1.53666,-39.2208,-44.5787,36.625,-0.691292,9.4609,-2.16935,0.0275724,-0.069806,0.0273793,-1.13045,-57.8192,-4.79376,34.0,10.0038,0.051087,-0.145444,0.000922683,-0.0105134,0.00742253,-43.6457,-1.28466,16.7532,1
Nordic walking,116.0,33.0625,0.0735135,7.44611,3.9033,0.250636,0.219643,-1.29126,-7.73151,-43.3858,-12.4152,38.3125,-0.541001,11.8281,2.70452,-0.0799812,-0.449161,0.00739287,-5.39735,-37.3928,-18.8695,32.3125,13.2265,15.1593,2.41794,-0.241637,0.198131,-2.46633,-18.2376,37.5593,37.6096,7
transient activities,95.0,34.5625,-8.90748,2.52821,1.89948,-1.19281,-0.463296,1.88239,55.6448,-25.2196,18.8347,38.1875,-0.572832,8.12689,-4.48613,-0.0582973,0.353687,-0.414024,-17.2843,-51.0595,-0.739505,35.4375,10.2073,0.674914,-2.30824,-0.552404,0.130079,-0.796996,-36.4122,30.7479,53.3029,2
vacuum cleaning,136.0,33.625,-6.98263,4.24629,4.77058,-0.700763,-0.35101,2.14897,48.549,-12.9794,12.9143,35.625,-3.36511,1.0526,-10.6703,0.235948,-0.00266734,-0.40037,-4.42295,3.94346,59.348,34.5625,9.68105,0.418689,1.5855,0.0942945,0.0859431,-0.00560645,-73.7714,9.03798,-33.1445,1
transient activities,129.0,33.75,-8.19277,2.87246,2.83272,-0.806542,0.383499,0.635467,50.4665,-14.1186,-35.2825,36.9375,0.386685,9.35587,-0.48448,0.0959037,0.955918,-0.0728502,7.91143,-44.7479,8.47873,34.0,18.163,-1.36018,-10.2792,5.45148,2.50063,3.43653,-90.5692,-6.57808,0.52998,5
lying,72.0,32.75,4.90352,0.505668,8.4636,-0.0285672,-0.00116976,-0.0361037,18.8858,5.55093,-50.4295,34.75,-1.32349,1.48353,9.42269,0.00620921,-0.0284463,-0.0245675,43.239,5.82874,-25.6857,33.4375,2.35321,-9.47859,1.03151,0.0938029,-0.0329608,-0.030355,-21.4094,16.325,-13.011,4
Nordic walking,128.0,30.8125,-0.0963418,-16.5318,3.94316,-1.69827,0.306106,0.523557,27.0281,41.2544,-12.2115,33.9375,2.73428,13.2612,-6.49511,-0.563024,0.385172,0.0813249,7.04392,-40.7365,26.0755,31.75,25.1677,5.47647,-11.2918,2.31397,1.61424,3.64683,-19.5425,43.9535,1.00488,8
lying,73.0,34.8125,0.721123,7.34838,6.26106,-0.0221872,0.00420061,-0.027491,-10.1221,7.73189,-32.6676,36.5625,-0.106754,1.66721,9.32797,-0.017314,-0.00965707,-0.0237773,38.7892,5.35126,-28.675,34.125,-0.497408,-9.1498,-4.51807,-0.0246953,-0.0142382,0.0278014,-13.5283,27.5404,-5.76286,5
sitting,94.0,34.25,-2.02039,-6.89533,6.38351,-0.00846917,0.007213,-0.0481046,6.61081,17.5138,-28.5614,37.5625,0.38761,9.85403,0.791709,0.0987075,0.022446,-0.0535428,5.78253,-25.0517,-5.60734,33.875,9.23836,2.73331,-2.56249,-0.0237386,-0.0356278,0.00790984,-18.2793,15.3829,26.0049,8
transient activities,149.0,33.5625,-1.11923,-7.59526,5.28323,-0.0191422,0.243765,0.0145418,3.6182,20.5253,-32.2481,37.8125,0.561573,9.62389,0.253516,-0.0971608,-0.0705578,-0.0211292,3.35164,-30.3746,-9.40115,33.5625,9.0236,-0.0226726,-4.32271,-0.0237529,0.0417664,0.0251781,-6.58567,-3.95576,-3.57442,8
walking,109.0,30.375,-7.85129,8.64511,-0.491551,-0.774294,-1.1611,-6.1631,40.102,-27.5794,-22.1879,35.3125,2.58797,6.67505,-0.513328,0.631288,-0.292614,-0.0661276,4.86814,-40.3889,17.1751,33.1875,3.82984,-4.73951,0.74712,-0.0333768,-0.544599,2.5735,-20.7214,-37.7335,3.50664,4
walking,111.0,34.625,-6.84979,4.5704,-1.27104,4.53917,-0.282015,2.6274,29.3886,-45.992,-18.7737,38.1875,1.28933,10.1116,0.342557,-0.0132599,-0.00462621,0.0064852,9.97835,-51.7948,14.5963,34.125,11.6364,-2.02529,-2.85568,-0.540412,-0.564993,-1.56601,-40.7314,-18.4065,19.4409,5
Nordic walking,127.0,29.125,-7.24676,10.7625,3.43607,-0.455736,-0.381009,1.24792,26.0598,-33.2867,-27.7678,34.5,3.34983,11.5296,-6.12984,-0.27063,-0.103936,0.334344,5.4825,-40.1225,-12.4331,32.875,10.7652,0.438273,-6.31437,0.196369,-1.56842,-2.79842,-37.8836,26.5994,5.35729,4
ironing,77.0,33.5625,-4.73831,-0.272819,10.5156,-0.234662,-0.239247,-0.256216,2.71092,6.29105,-49.2201,36.4375,-0.971521,9.57158,-2.63944,-0.0845688,0.0564281,0.0186171,4.37714,-39.5783,-0.599487,32.6875,9.48918,-1.52404,-2.1476,0.00915404,0.00633965,0.0146919,-34.311,-1.27244,44.406,7
transient activities,100.0,31.375,-7.92699,2.72902,3.99181,-0.00888339,-0.659751,0.145943,36.0677,-0.677991,-14.4689,36.3125,0.686481,9.57954,-0.67338,-0.0631437,-0.0835461,0.0456322,5.91039,-25.8475,10.7546,34.8125,9.54895,1.28315,-1.89429,-0.00321153,-0.0128391,0.0751353,-28.7798,0.396461,5.41971,6
sitting,95.0,32.5,-0.615427,7.84744,5.73902,0.00762153,0.0182028,0.00593861,-33.8244,-20.8068,-47.6786,34.1875,0.763882,9.73884,0.644017,0.00921313,0.0110346,0.00495805,12.8381,-60.9665,-41.482,32.875,9.115,1.03676,-3.94245,0.0151982,0.0389822,-0.0251607,-84.4347,37.7854,16.0182,1
descending stairs,116.0,32.25,-9.02587,0.852888,5.36722,0.0653632,-0.158148,-0.416799,48.6981,-13.889,-69.3803,36.5625,-0.114406,6.95653,0.830753,0.735685,-1.1166,-0.0566094,19.8472,-46.7347,-10.4668,34.1875,19.8328,-9.89403,1.32912,-2.11742,-1.69547,-2.53472,-35.7599,-20.2793,30.5969,3
transient activities,101.0,33.9375,-9.61585,2.76341,2.119,-0.182526,0.0292101,-0.0488321,36.8557,-11.8798,-1.2794,37.6875,0.620299,9.92073,-0.365921,-0.0062677,0.00479288,-0.0790368,-8.532,-24.0245,10.3617,32.75,9.76557,0.181276,-1.96241,0.00508084,-0.0138857,0.00976506,-28.4548,-3.93466,26.5589,7
sitting,73.0,33.5,0.0171642,8.66343,4.20625,0.0951868,-0.0116272,0.050406,3.98891,-23.4164,-19.909,35.8125,0.640488,9.77478,0.331897,-0.0815703,-0.0541681,0.015199,3.43403,-25.6124,-3.22342,34.6875,9.50775,-0.492063,-3.00279,0.0205528,-0.011739,0.0326703,-17.8869,-4.37565,12.1297,6
sitting,71.0,34.3125,-1.96761,-9.6773,0.851501,0.000438326,-0.0054826,-0.0291793,7.26075,24.6867,-13.9083,37.625,0.260785,9.88919,0.363367,-0.0182434,0.0105302,-0.0107832,6.27302,-25.5878,-3.62682,33.9375,9.24056,2.73267,-2.48529,-0.032643,0.00387971,0.0240117,-18.0511,16.1411,25.012,8
transient activities,104.0,32.3125,0.087264,-7.92782,3.10865,0.189362,0.0691093,-0.682755,-16.7572,17.2728,-27.4628,36.9375,0.862811,9.96078,0.102994,-0.291941,-0.385912,0.156771,0.370293,-26.1348,-12.125,32.4375,8.93478,-0.588515,-4.70601,0.208437,0.0577292,0.58287,-22.3407,-3.72626,26.0128,8
sitting,78.0,34.9375,-0.120682,7.57941,5.90128,-0.0452083,-0.0164221,-0.0627169,3.55264,-22.4064,-28.8381,36.8125,0.776142,9.33644,2.38799,0.0665172,0.0212315,-0.039724,4.88791,-23.34,-7.59735,34.0625,9.05517,-2.84584,-2.68411,0.00153313,-0.0178674,0.00577969,-33.4902,-0.849493,27.1049,5
walking,119.0,29.3125,-14.37895,3.614025,1.833105,0.3910017,1.92893,-6.1062,42.08655,-10.64865,-46.123900000000006,36.8125,-1.62303,6.51333,1.38568,0.0529225,0.313603,0.00738662,15.6107,-46.9442,-20.9505,34.5,17.0541,-1.66608,-4.50029,1.99099,2.19783,6.19427,-46.7179,14.8576,-2.85408,3
sitting,77.0,33.9375,-1.05257,7.13546,6.35067,0.00380315,0.0169005,-0.00835846,-2.01894,-20.1809,-19.7983,37.375,1.40518,9.37037,-3.40887,0.0167338,-0.00538406,-0.0281007,-4.24066,-20.1571,5.99677,34.6875,9.46532,-2.51645,-1.48567,-0.0128745,-0.043204,0.0188957,-13.9916,-3.92697,20.691,2
transient activities,107.0,34.4375,-12.2869,-1.32262,1.0921,-0.629888,-0.00253762,1.46509,41.3935,44.7172,2.96129,38.125,1.8667,11.2313,-0.850972,0.0897284,0.143953,0.0425384,37.1854,-29.1652,-16.5048,34.4375,1.60889,6.35458,-3.12628,-0.581886,1.58022,2.83697,-16.6743,39.3365,55.4839,8
transient activities,89.0,35.5,-8.75072,3.51313,1.86002,1.25634,-0.401096,-0.465908,33.3901,-17.6664,-23.2843,37.625,1.4854,9.87775,-0.737318,-0.593659,0.297678,0.449583,-0.705749,-36.1589,-7.84549,34.5,4.44004,-1.90061,-3.31614,-0.00197644,1.23336,0.760342,-27.8285,-9.66626,14.512,5
ironing,99.0,33.3125,-0.124689,3.4601,7.72403,-0.568636,1.58747,1.40525,-42.7559,-46.1485,-59.1909,35.25,0.421312,9.0364,-3.15456,0.523068,-0.128299,-0.401578,-10.9986,-57.1127,-9.35534,34.0,9.67478,-1.19323,-0.951477,0.0630576,0.399137,0.139829,-56.6158,-1.6805,48.1711,1
vacuum cleaning,114.0,34.625,-8.20881,5.1017,-2.44781,0.211622,-0.172712,0.228051,35.4688,-2.62114,0.8982,38.1875,3.46217,4.27738,-9.39551,0.307438,-0.168191,0.36363,7.57548,-18.4468,27.7857,34.625,9.46731,0.818597,-0.734553,-0.229695,0.201921,0.664206,-13.1401,-3.44152,16.2584,8
cycling,124.0,32.0,-2.22934,8.23171,4.86683,0.214763,-0.0635624,-0.0583366,2.08643,-38.4836,-45.1557,36.625,-0.932362,9.53407,-2.59989,0.00698388,-0.0238129,0.0221843,-1.57996,-58.0321,-4.31055,34.0,9.81319,0.0152677,-0.262945,0.015686,0.0239848,0.0148746,-43.6468,-1.06725,17.0031,1
transient activities,152.0,33.5625,-6.15914,2.47744,7.09813,0.0698519,-0.0105338,-0.0443122,3.66372,-14.3337,-10.646,36.75,2.77073,9.91769,0.215141,0.275568,0.014289,-0.108919,-6.47036,-12.9904,-7.73514,35.125,6.97649,5.12063,-4.91588,0.0337695,0.00379772,0.0115819,-22.146,-6.30752,27.1511,6
descending stairs,101.0,33.875,-5.60829,2.80869,2.21737,2.38459,-1.15482,0.431119,25.0986,-3.82435,-34.7459,37.8125,-0.877402,7.82687,-4.45195,0.0373558,-1.84015,1.00704,0.0271339,-23.1454,11.6961,35.125,12.8325,-0.657519,0.775522,-4.82725,-2.87096,3.70098,-33.6388,12.4054,31.1757,2
cycling,121.0,30.0,-5.54861,1.79255,7.41748,0.323943,0.039183,0.0483491,28.7563,-11.1497,-23.1781,34.875,0.611825,7.85173,-5.6254,0.243015,-0.230273,0.00210783,-1.57457,-12.6066,25.905,33.875,9.96578,0.355715,-0.224904,-0.0239321,0.0643198,0.00727117,-31.615,-6.18341,13.013,2
transient activities,94.0,34.25,-7.32075,1.44565,1.04169,-1.57501,0.399253,-0.142811,61.4092,-32.6869,-20.7565,37.5625,-0.892306,8.83691,0.113571,-0.600875,0.752109,0.301244,-17.7803,-41.6006,1.93691,33.125,9.48744,7.00033,0.114851,0.317165,0.338092,-0.847111,-55.4783,24.3516,36.9266,7
transient activities,142.0,33.5625,-5.94258,2.9276,6.71498,0.0309713,0.0020929,0.0132439,4.40109,-14.3724,-9.5974,36.75,2.22166,9.69007,-0.297439,0.0198953,-0.0227903,-0.123696,-5.39761,-14.5764,-8.8467,35.125,7.19675,4.93032,-5.02821,-0.063017,-0.0346838,-0.0323593,-22.2756,-5.91314,27.7175,6
transient activities,173.72727272727272,30.25,-7.2429,0.366883,3.50969,-1.73463,0.783944,-0.431621,57.755,-17.2992,-39.6628,33.875,1.01863,7.04598,-2.0918,0.328831,0.192215,-0.312451,5.76676,-69.5917,10.985,33.1875,9.62658,0.341892,-2.92957,-0.600884,-0.0307947,0.115932,-70.1378,19.9735,6.55166,1
lying,87.0,31.125,0.579273,5.88463,7.91883,-0.000101471,0.00174026,-0.00973445,-31.4793,17.0319,-38.9652,32.9375,0.961153,1.92745,9.34647,-0.0334575,-0.00690972,-0.00273486,40.0266,9.87351,-54.7026,31.5625,-0.585038,-7.57582,-6.57398,-0.0202903,-0.0327083,-0.0101717,-13.7715,45.1752,-5.64707,1
vacuum cleaning,97.0,34.1875,-8.23524,3.04996,-2.78767,-0.0949103,-0.381371,0.316748,42.6261,4.56284,-4.80284,37.4375,2.21428,8.90077,-5.6385,0.187747,-0.00577912,0.31523,-21.1749,-11.1908,23.3143,33.1875,12.0706,-5.53289,-1.40164,-1.35375,-0.312059,0.0947703,-24.9826,-28.9878,15.6791,7
running,170.0,28.1875,-3.45411,81.8354,-34.7339,7.25329,2.61423,1.63748,4.59698,-44.531,1.21489,33.25,3.79436,23.8366,-1.24423,0.185712,1.66485,0.223165,-8.21198,-40.7896,-1.24422,33.875,9.35938,-0.257388,0.930369,-0.867693,0.616308,-4.09231,-41.9169,10.6382,25.5018,6
transient activities,129.0,28.375,-7.96042,2.90999,2.99003,0.226819,0.0696115,-0.238547,41.1505,2.89474,-18.8316,34.0,-0.453873,9.88486,-0.61759,0.234658,-0.146903,-0.0916027,21.2312,-29.1162,6.08558,33.9375,7.80064,4.82762,-2.20434,0.463382,0.0450123,-0.93455,-24.7859,-17.9813,-3.19668,6
transient activities,77.0,33.5625,-9.49955,-1.8767,0.981776,-0.0534979,-0.0122906,-0.0292679,48.6589,-9.89575,10.6268,36.4375,0.220183,9.81348,0.285435,0.022401,0.0383997,-0.00692982,6.93668,-39.6984,23.8128,33.125,9.66933,-0.116216,-2.65616,0.00654736,-0.0190853,-0.013912,-35.8262,37.7572,-18.0507,8
ironing,109.0,33.5,-4.85024,1.72467,4.69557,-2.37629,0.382932,-0.10116,15.5271,-74.5524,-38.5197,35.4375,0.713587,7.84852,-6.04947,0.0729871,0.0485304,-0.0840277,-11.0948,-40.0491,8.88383,34.125,9.53916,1.09587,-2.20194,-0.0100815,0.0226395,-0.0411353,-35.3952,1.35443,43.69,4
walking,112.0,30.3125,-13.3047,1.75478,4.87673,1.04555,-0.496433,0.957133,33.1233,21.7051,4.03623,35.375,3.45589,11.5737,-5.12132,-0.381668,0.0174663,0.495054,6.86322,-20.8694,26.3844,33.1875,13.6167,6.67586,-9.83549,0.512712,-1.10278,-2.58841,-38.274,-5.28762,12.91,4
transient activities,138.0,30.8125,-9.33281,-5.54757,2.18977,-0.125247,0.358056,0.521547,40.5328,-16.0687,-33.0196,34.25,3.21548,10.3273,-0.242784,0.121845,0.362161,-0.063569,-15.4532,-38.7168,-1.30637,31.8125,16.7937,-13.251,5.60223,2.40533,0.644044,1.59694,-36.6127,-25.3364,9.3933,8
transient activities,136.0,32.125,2.29697,7.11582,7.09368,0.167224,0.756769,2.12922,-9.83473,-16.6693,-37.6089,36.75,-0.418946,8.67983,-0.61304,-0.0516081,1.37697,0.0678748,13.82,-39.0476,1.83249,34.0,11.7308,1.94466,-5.54203,2.2092,-0.726359,4.63527,-38.7014,-9.23864,4.25006,1
descending stairs,151.0,34.5625,-2.85214,2.3042,3.37649,0.00549266,0.0287209,1.43429,36.0314,-0.425189,-10.5334,37.9375,0.345797,0.0981775,0.280569,-0.380373,0.527501,0.0421449,-7.68582,-27.7947,9.40199,33.6875,4.63061,-6.76421,1.65546,0.0711782,-1.29771,-1.40821,-33.9512,-3.36831,38.3109,5
walking,119.66666666666669,33.25,-14.7721,4.38094,4.4995,-0.425935,0.138224,3.44514,45.9861,38.7456,-20.6388,37.25,3.12791,9.18995,-6.97812,-0.535269,0.257967,-0.187883,17.8981,-30.8672,45.4206,34.75,11.6126,3.12117,-0.726842,-0.170966,0.132793,-2.34545,-58.9424,-11.5895,-22.8408,1
ironing,94.0,33.25,-0.792901,4.045,4.67154,-0.285822,0.172028,-0.170075,45.0919,-59.1623,-78.1594,35.0625,-0.243115,9.87132,-2.51105,0.0327279,-0.00689905,0.0372765,-19.9397,-56.9983,-13.6585,33.875,9.72347,-1.98462,-1.71786,0.107855,-0.0225643,-0.00107418,-56.0085,-4.47263,49.1266,1
running,195.0,30.8125,8.03354,-5.05076,5.10385,-3.71796,-2.8918,-0.0873592,47.6428,3.31003,6.61178,34.125,-5.11994,-0.649646,-1.55846,0.171559,1.14675,-0.646132,8.15891,-34.4632,30.7007,31.6875,14.1469,-0.635049,-2.99292,-2.94062,-4.07957,-8.92653,-28.016,38.3477,8.64051,8
cycling,131.0,29.3125,-8.06,1.75127,9.07345,-0.744479,-0.239256,-0.0238937,49.3646,-6.73747,-34.4064,35.0625,1.34702,6.23646,-10.2533,0.0249823,-0.783829,0.992619,17.9624,-11.4996,47.2771,34.25,10.9881,-0.349303,1.64225,-0.580346,-0.170707,0.804733,-39.5993,-23.2584,8.67123,6
standing,80.0,33.625,-8.31737,3.92239,5.55992,-0.479498,-0.0640185,0.0946873,26.6082,-22.8974,-35.9683,36.0,0.808186,9.769,-0.439465,-0.0629934,0.098138,-0.078942,-6.66348,-33.0929,-16.3646,34.8125,9.66092,-0.0377093,-2.96545,0.0395015,-0.0557957,0.00552393,-34.9824,23.0863,41.8224,6
sitting,84.0,32.9375,-2.50923,6.35582,6.98577,0.048615,0.00361613,-0.03327,9.44707,-20.3598,-23.7444,35.125,0.802439,9.60842,-1.91044,0.000987907,0.0557309,-0.0136234,2.51906,-23.9095,3.81076,33.875,9.66108,1.88021,-0.700564,-0.0563294,0.0131603,-0.020077,-7.02515,-6.04711,21.9562,4
transient activities,87.0,33.9375,2.22393,4.94855,6.52259,1.09527,-0.0560144,0.824935,-13.5831,-17.0413,-54.0324,36.75,-0.639623,9.54786,-0.426255,-0.447408,0.379641,0.221224,19.5439,-37.5419,-16.439,35.1875,10.0375,0.81247,-0.419951,0.624326,0.687893,-2.19242,-34.0592,-22.745,14.5052,6
ascending stairs,157.0,33.8125,-14.7016,3.28935,1.30979,-2.81571,0.743701,4.44789,66.9772,-20.899,4.05397,36.25,0.668515,7.67642,-3.68775,-0.0671645,1.10454,-0.373556,-22.5772,-56.3915,39.5011,34.8125,9.31074,3.9504,-2.87802,-0.132817,0.0720092,0.26701,-42.8562,-27.273,27.7334,1
ascending stairs,147.0,32.5625,-7.13218,2.7794,1.84825,-1.01317,-0.158242,0.712209,53.0045,-23.2972,-11.7414,35.625,0.970568,9.77953,1.18972,0.254756,0.707685,0.0370151,-14.6758,-44.5543,3.80834,33.5625,21.2316,5.32973,-8.90007,3.74988,-1.20556,5.07045,-45.9691,20.4919,24.0578,4
lying,85.0,32.5625,4.11823,0.362387,8.72173,-0.00144154,0.0507978,-0.0190311,24.2066,6.26074,-48.8698,34.5,-0.333302,2.04472,9.36136,0.0274819,0.00726664,-0.00741965,40.478,4.51528,-28.7995,33.1875,1.75671,-9.6656,1.14233,-0.0282588,-0.0175512,0.0112184,-20.2773,16.6523,-13.8584,4
transient activities,81.0,34.25,-7.54446,1.43839,0.0376932,0.283355,-0.598472,0.719109,37.0459,-14.1468,-35.2551,37.5,1.36648,9.74405,1.70038,0.0722731,-0.173567,-0.122472,17.2676,-40.449,7.10938,33.1875,13.1803,1.67812,-1.89809,-1.07313,0.735013,-1.68126,-47.0711,6.83502,2.08576,7
cycling,126.0,30.8125,-6.10483,5.2081,7.01276,0.130461,0.0318763,-0.0312887,56.9502,-11.481,-27.3065,35.0625,-0.0857201,9.13072,-6.14556,0.737339,-0.282833,-0.0197401,9.81932,-26.0217,39.2656,31.9375,8.599,-5.47544,-1.12888,-0.0979646,-0.0329103,-0.0576423,-22.4838,40.8967,6.10404,8
standing,99.0,33.3125,-9.09409,1.97195,3.16865,-0.00615184,0.0364134,-0.0220637,36.7568,-2.56954,-4.61647,35.3125,0.399793,9.70627,1.21834,-0.0289308,0.0295306,-0.0177772,-10.0971,-31.9552,3.34565,34.0,9.3139,2.64589,-1.21054,0.00439159,-0.00318849,-0.05158,-3.07453,-20.6795,16.5975,4
transient activities,176.0,28.5625,4.85905,8.71894,-6.49788,-1.32185,-0.4743,0.669565,-31.9686,-9.42687,15.2635,32.1875,0.750519,8.99457,-3.61311,-0.0111252,-0.185188,0.0492621,-16.5761,-39.3661,1.00312,30.375,9.71482,-1.10749,-2.18647,-0.0247491,-0.0397545,-0.000796641,-35.7308,4.90469,36.6829,2
lying,61.0,31.0625,0.482511,4.63989,8.65284,-0.0121861,0.0109139,-0.0329929,-6.13742,16.9498,-33.7815,33.9375,0.731919,2.15382,9.30286,-0.0145909,0.0241815,-0.0329781,34.8844,3.82282,-32.5006,30.875,-0.923024,-8.64878,-5.10439,-0.0453189,0.00897419,0.00354489,-13.0789,29.8321,-6.89859,7
vacuum cleaning,106.0,34.6875,-14.9787,-6.89208,-4.58707,0.0933393,-0.852568,-1.88527,5.85522,33.3382,6.38309,38.25,2.37671,3.86264,-9.99465,-0.647806,0.219209,-0.984572,15.6419,-24.2904,28.157,34.6875,9.5129,-0.802509,2.47891,0.804451,-1.3636,0.661699,-7.63375,36.6426,37.0806,8
walking,112.0,34.4375,-12.5706,6.06093,3.37219,-2.04882,1.17855,1.65264,45.5349,-21.6582,-12.7861,38.125,4.03051,12.5309,-2.51972,0.195564,1.08857,0.150911,-8.42489,-37.9307,-14.3753,33.9375,12.004,2.18452,-2.56931,-1.89986,-0.383186,-1.15117,-37.7429,27.2776,19.3984,5
Nordic walking,104.0,30.875,0.299985,6.27881,0.870127,-0.264023,-0.101067,0.819097,-19.2035,-36.4489,-18.9956,36.125,2.79695,12.4825,0.865535,0.133699,-0.779529,0.024481,-6.62046,-39.2881,-13.227,34.8125,13.8946,-3.84114,-0.737411,-0.73515,0.127728,-2.06812,-42.9064,10.0488,27.201,6
Nordic walking,130.0,34.625,-3.14346,8.69017,0.194614,0.178526,-0.110889,-2.72255,41.3005,-27.3918,-17.2046,38.375,0.491865,5.8914,-0.471313,-0.0810182,-0.445654,0.482323,11.5637,-38.5789,23.2746,34.25,4.28173,-2.29879,-0.922744,0.647142,1.04875,4.47293,-17.5147,-40.1861,11.8889,5
walking,98.0,31.6875,-8.59101,4.90683,5.09065,1.48412,0.266958,-0.194866,39.2177,21.7617,18.1966,36.4375,0.53107,10.3407,0.444238,-0.00641726,-0.142742,0.0576129,-14.6449,-39.2854,20.4172,34.875,17.8516,24.3962,-2.45424,-2.1945,-0.546159,4.40717,-40.611,8.15497,35.012,6
cycling,137.0,29.125,1.78215,1.59533,12.9932,2.79032,-0.327886,0.559207,20.821,-10.8069,-47.1846,34.9375,-0.669989,6.25221,-8.89598,-0.392618,0.0753846,0.194911,-8.0047,-33.9914,26.6375,34.1875,8.47066,8.33948,-0.366962,0.316848,-0.221292,1.67392,-42.1244,6.90655,22.6687,6
ascending stairs,123.0,32.5625,-6.64944,1.37219,1.89872,0.906594,-0.676981,1.37815,63.1565,-16.9873,27.1756,35.3125,-0.961457,7.47529,-0.812558,-0.446621,0.505743,0.401083,-31.4012,-32.6085,23.0827,33.375,9.27596,3.18934,-2.64212,-0.259524,0.419317,1.17583,-7.41733,-12.5912,66.3559,4
standing,101.0,32.9375,-8.318,3.3346,3.48357,0.0768729,-0.00061445,0.00707121,66.584,-29.968,8.7056,34.5625,0.470944,9.64974,-1.52937,0.025888,-0.0496171,-0.0289962,-29.8946,-52.922,28.9757,33.25,9.23971,-3.3513,-1.36703,-0.0300824,0.00598215,0.0027692,-98.1456,-28.9335,33.8617,1
transient activities,82.0,30.125,-7.05325,2.0332,7.54808,0.652806,0.285953,-0.0973176,24.9223,0.956869,-33.4193,31.875,-2.30132,9.45244,1.36384,-0.0852565,0.183342,-0.0436309,14.3355,-25.5325,-11.625,30.0625,9.69149,0.751922,-2.04389,0.0429978,-0.0201547,-0.0642413,-11.425,-8.52532,11.09,3
transient activities,124.0,32.0,2.71545,8.16275,1.51575,1.3785,0.909355,0.0567889,-24.6885,-26.9278,-2.13638,36.5,3.40498,6.16961,-2.47165,0.00161143,0.0225807,-0.344738,-11.8363,-34.0941,-6.27252,34.5625,9.8207,-1.49729,-1.02527,0.336376,0.556204,-0.757576,-25.9777,20.127,35.899,2
walking,120.0,31.6875,-11.9855,2.01735,1.47022,-0.0360288,-0.824709,1.6552,34.7261,-19.8626,-24.1505,36.4375,3.33114,12.9728,-4.31499,-0.749029,-0.491457,0.10712,10.5894,-23.9071,31.9581,34.5,16.9839,-0.596252,-0.610099,-0.299492,0.766181,-2.57144,-33.7943,-16.8815,1.7766,2
transient activities,108.27272727272728,31.0625,-3.65918,-4.93523,7.73789,-0.0284502,0.023526,-0.0202642,30.4363,27.6606,-26.1778,35.625,0.719104,9.81271,0.410639,-0.00120085,0.000235651,-0.0246423,16.7974,-33.216,13.2692,31.625,9.09396,-0.249995,-4.43635,0.0106102,-0.000340331,0.00360474,-30.4763,17.0102,22.2725,8
Nordic walking,119.0,34.875,-5.49011,17.7136,5.82515,0.298359,-0.661333,0.944558,37.7076,-54.1205,-4.69946,38.5625,1.32731,10.1806,-6.12338,-0.141002,-0.238489,0.453558,-21.3826,-60.1774,11.1826,34.375,8.70188,3.52219,-5.77582,0.105029,-1.98153,-2.68595,-42.8664,18.1804,34.8506,5
cycling,122.0,34.5625,-3.24633,2.63532,6.10207,-0.180751,-0.2464,-0.0969792,38.1474,-20.2883,-38.1072,38.125,-0.026057,7.6215,-6.56551,0.197053,-0.071172,-0.00382472,9.18872,-25.3521,37.8474,34.375,14.8933,2.13673,-3.58131,-0.257949,-0.21419,-1.76758,-36.0625,-20.079,11.5166,5
transient activities,126.0,31.9375,-2.39365,9.41218,0.973158,-0.0200808,0.00819546,0.0244725,8.4317,-25.4902,7.45247,36.75,-0.372048,9.55596,0.895078,0.0765731,-0.00568396,-0.0447691,-3.53504,-25.6229,14.5806,34.4375,9.59099,0.89061,-0.347836,0.0178272,-0.0158495,0.0200208,-15.1705,-2.24876,30.497,3
Nordic walking,144.0,32.1875,-5.11313,3.05144,0.107158,-4.03285,-0.582355,-1.01044,9.73003,-63.3701,-14.4962,36.8125,-0.906579,17.8213,-7.66008,-0.463682,0.435317,0.0153058,-22.3756,-56.1506,24.6726,34.0625,18.6071,-4.23493,-7.28546,-0.758149,1.35432,-3.0256,-39.9249,-49.7579,18.1862,1
lying,72.0,33.3125,5.00166,-0.332218,8.19848,-0.0163262,0.00691308,0.00609699,15.2112,22.8792,-40.4223,35.4375,0.53248,-1.19673,9.31014,0.0261668,0.0272443,-0.0202264,36.7959,16.5146,-27.4832,34.5,-0.204199,-9.50281,-3.35518,0.0129697,0.0459609,0.00955933,-16.3134,26.6502,-5.48796,6
ironing,90.0,35.3125,-1.44661,4.01047,8.70304,0.501499,-0.129555,0.0627684,-7.35315,-0.496165,-53.2268,37.3125,-0.500719,9.4603,-2.1659,-0.0952094,0.0582058,0.0810847,8.68745,-40.7581,-10.9971,34.4375,9.38249,-0.867825,-3.38764,-0.00604354,-0.0375885,-0.0369631,-42.896,34.7736,29.2998,5
transient activities,122.0,32.0625,-7.16238,3.02837,4.19469,-0.0802523,-0.119428,0.494186,47.7253,0.881002,-20.3725,36.6875,-1.61086,7.63013,-6.05215,-0.315422,-0.466745,-0.170998,-1.9283,-29.4164,32.4962,34.0,9.85096,0.927562,-0.422578,0.947196,0.423599,-1.62766,-35.9763,-12.4425,-11.155,1
transient activities,136.0,32.0,-2.01273,9.40025,-0.0217682,-0.0328889,0.0188669,-0.0045962,2.53877,-24.9435,8.45168,36.75,-0.241867,9.77622,0.122302,-0.0504825,-0.00759388,-0.044585,-7.56136,-24.0331,14.2764,34.4375,9.60555,0.0984937,-0.998793,0.0286976,0.0590963,-0.000516691,-14.1996,1.55204,32.5101,3
cycling,129.0,31.3125,2.63101,3.40018,7.68853,-0.652484,0.352751,-0.174879,-11.5763,-38.8587,-47.4336,35.5625,1.38734,6.9317,-7.66057,-0.00903442,-0.0311307,0.0181914,-14.9581,-55.1067,30.0574,33.625,8.69525,6.01844,0.0742306,0.102419,-0.147098,0.955633,-62.8388,11.1416,21.0037,1
transient activities,114.0,28.0,-9.37059,3.24887,1.46675,-0.395063,0.224703,-0.971139,38.3179,-20.7395,-22.9281,31.625,1.12351,9.36784,-3.91733,0.682926,0.379087,0.0675135,4.06424,-40.1109,7.07646,29.9375,9.7366,-0.733588,-1.49395,0.478419,-0.182858,0.00312426,-34.2578,14.5701,27.6143,2
ascending stairs,149.0,34.625,-11.9523,2.69761,1.19902,-1.07083,0.493941,0.894616,31.0456,-14.6917,-30.1216,37.9375,3.51215,14.2582,-3.46403,0.850561,0.173818,-0.389652,10.7855,-37.5014,7.04754,33.75,10.0402,0.0832251,-4.12,-0.136078,0.121749,-0.22408,-46.5905,6.54393,-1.17435,5
transient activities,87.0,33.9375,-10.7159,-2.96986,-7.7309,0.404514,-1.52661,6.28589,57.616,-21.6747,-1.13082,36.75,3.62422,11.8201,-2.02139,0.258192,0.421991,0.0878483,1.95404,-46.3538,27.623,35.1875,11.1704,1.29079,-4.07731,-0.420776,-0.120183,-0.810025,-75.7765,-26.797,30.3902,6
transient activities,165.0,33.75,1.78184,9.4324,2.6521,0.403557,0.19399,-0.118582,-6.85698,-30.4599,-36.4029,36.375,-0.304376,9.91259,-2.00893,-0.00150434,-0.064808,0.0214895,15.9792,-40.7153,-6.96261,34.8125,9.47124,-2.86042,-1.21335,0.0160272,0.00776434,0.018662,-37.2092,40.0052,-2.66361,1
transient activities,97.0,34.5625,-1.72333,6.32459,-8.47428,3.78251e-06,0.0155753,-0.0234916,41.8226,-11.7315,22.3788,38.1875,0.183279,9.82525,-3.54865,0.314545,-0.255417,-0.072266,-8.91857,-27.5071,32.5153,35.4375,9.73213,0.0936064,-0.4958,0.163117,0.0671725,-0.152121,-42.724,-37.1944,26.7601,2
cycling,131.0,31.25,-1.04872,7.04236,8.66029,-0.12558,-0.492454,-0.768502,28.2141,-26.5871,-43.6919,35.875,-0.333162,7.65958,-6.64864,-0.561378,0.368712,-0.781268,-10.1326,-40.3471,13.2634,32.0,6.39844,-6.76724,0.670277,-0.348372,-0.669779,-1.45936,-41.1272,-12.7618,5.95887,8
descending stairs,170.0,33.6875,-8.73542,4.49188,1.01022,1.69112,-0.834581,1.82785,22.7961,-30.088,-4.45019,36.9375,1.60212,9.18307,-3.17236,-0.00575282,-0.960409,0.345114,-17.2786,-34.9544,-2.31119,34.9375,9.20689,-1.40238,-2.88446,-0.307144,0.0170734,-0.178248,-40.9378,-3.1387,58.301,1
transient activities,82.0,33.0,-10.5195,3.17806,1.02642,0.995582,-0.893907,0.290212,34.5565,-22.4348,-43.3872,36.4375,1.55435,10.2986,0.269308,-0.158099,-1.16003,-0.897895,11.4011,-35.1343,-14.0115,33.9375,9.57446,-0.158613,-2.03943,-0.130666,0.176168,-0.13848,-48.5129,13.8045,23.3905,3
ironing,85.0,34.3125,1.46502,5.38974,8.51108,0.58225,0.205159,-0.16101,8.95271,-44.413,-29.6749,37.625,-1.5887,8.81045,-4.11954,-0.00997634,-0.303946,-0.0597427,-2.51101,-33.149,2.94102,35.0625,10.0419,-1.09014,0.0935663,-0.121349,-0.0334836,-0.180596,-40.8969,11.9662,33.706,2
sitting,76.0,35.0,-0.189041,7.26542,-7.99262,0.348345,-0.116911,-0.346595,1.26724,-17.9117,14.3146,36.9375,0.610134,9.11681,3.23756,0.0147872,-0.0118399,0.00198572,4.36918,-21.2556,-9.30484,34.1875,9.12003,-3.07156,-2.99076,-0.000601453,-0.00551055,0.0137673,-38.1082,6.33302,27.0803,5
ironing,86.0,34.375,0.222529,4.71881,8.76414,0.260799,-0.0628604,-0.482196,-12.8815,-25.2003,-37.4345,37.75,-1.52569,8.99537,-4.58365,0.222498,-0.517991,0.17089,-4.67768,-33.206,4.86932,35.125,9.57575,-2.03297,-0.329848,-0.205828,0.0172804,0.0851251,-40.3975,8.52416,34.0365,2
vacuum cleaning,107.0,34.625,-12.4903,-3.51161,2.21258,0.639768,0.272985,1.42539,41.9513,19.6124,-8.04231,38.25,0.249895,7.62274,-6.25075,-1.31602,-1.28323,0.705081,4.76202,-17.3254,41.1551,34.625,9.7633,-0.0355296,-3.31172,-0.323425,0.450859,0.255095,-19.3912,16.0616,19.0504,8
transient activities,100.0,33.6875,0.448037,6.33428,2.95048,-2.97267,-0.365529,-1.94302,-20.2126,-43.6018,-20.421,37.75,0.961281,8.84802,-2.91184,0.112234,-0.485786,-0.125443,-22.4036,-37.977,16.9743,35.125,9.06388,-2.04387,1.4015,0.057165,-0.050593,0.160016,-55.9643,-16.8354,32.6556,2
transient activities,97.0,33.3125,-6.20828,7.14174,2.54015,-0.0287534,0.0232689,0.030695,13.5635,-42.4482,-17.0921,36.4375,0.308064,9.45095,-3.15796,0.00461307,-0.000596137,-0.0236259,-16.9129,-34.7449,10.075,34.125,9.60604,-1.06978,-2.07205,-0.00075055,-0.00890954,0.000343522,-46.6498,-1.546,61.5829,2
walking,110.0,34.5625,-13.4753,3.09614,6.21671,-0.289374,0.205208,-2.78698,50.1153,2.4153,-20.1591,38.1875,-0.747222,11.9494,-1.7138,-0.0336966,-0.593382,-0.0610169,8.46064,-40.6515,18.1886,34.0625,5.92078,1.08805,-3.12656,0.404045,-0.722932,-1.40746,-12.9478,-37.9279,25.3764,5
cycling,133.0,28.5,3.90394,0.318403,3.63833,1.19693,0.801038,0.365941,44.1018,4.5892,-32.7584,34.375,0.360121,3.18976,-4.6855,-1.94743,0.884164,1.4954,26.6087,4.95602,38.6426,34.0,2.25934,2.7339,-1.93946,0.456176,0.144385,2.74746,-22.6037,-26.9869,-7.71718,6
lying,60.0,32.8125,5.52455,0.30598,7.89626,-0.0425785,0.0119751,0.0243007,16.89,5.78192,-49.9019,34.875,-0.372512,1.63065,9.362,0.0242018,-0.0272796,-0.00300588,40.4619,5.41849,-28.6638,33.5625,2.45869,-9.51534,0.801287,-9.15323e-05,-0.0443202,0.0323104,-21.7754,15.83,-12.4444,4
sitting,80.0,33.0,-2.77701,4.43533,8.37378,0.00281749,-0.00346005,0.0118613,9.68194,-16.2805,-28.7564,35.125,0.925287,9.79815,-1.63779,0.00994855,0.0114014,-0.0104613,2.40569,-23.3879,2.39697,33.875,9.73294,1.7285,-0.776065,0.00913971,-0.0212094,0.0215231,-6.51695,-5.94371,21.9579,4
ironing,71.0,33.9375,-6.18073,-1.16372,7.22555,-0.11243,-0.0640409,0.521457,6.76293,10.5415,-50.304,36.875,-0.161864,9.60881,-2.31512,0.0617294,-0.258952,0.0200266,3.50153,-37.737,-3.85913,32.875,9.62374,-0.836098,-2.80652,-0.12699,0.0286374,0.116949,-30.4511,5.75901,49.2337,7
lying,71.0,34.75,0.798843,7.27259,6.33945,-0.0269114,0.00235058,-0.000873324,-9.7597,8.58113,-32.8048,36.4375,-0.285989,1.63274,9.71205,0.00923552,-0.00288186,-0.0305603,38.5373,4.07,-27.8235,34.0625,-0.457077,-9.22694,-4.40141,0.0276584,-0.000128399,0.00443933,-14.0559,28.2096,-6.04916,5
transient activities,160.0,30.875,6.19938,-3.24229,6.30187,0.568419,0.0226146,0.0192545,-29.9947,13.1394,-27.8046,34.1875,0.492656,10.2279,0.443909,0.0848671,0.500672,0.177506,16.6103,-41.5792,1.18904,31.8125,9.56376,-0.307597,-2.38593,0.34019,0.328859,-0.16338,-28.7523,-3.93113,22.7283,8
transient activities,108.0,32.8125,1.74502,9.07254,0.574448,-0.618932,0.729768,0.458579,-31.7289,-38.0435,-11.4339,37.375,0.374437,8.45257,-5.98014,-0.290087,-0.224029,0.00297208,-16.1998,-45.392,10.9295,35.0,9.71612,-1.49883,-0.756209,-0.438163,0.178152,-0.429159,-46.1058,29.1243,43.3388,2
sitting,75.0,33.875,-1.15283,6.91239,6.77328,0.0184064,-0.000670442,-0.0179265,-1.75166,-21.8986,-22.8288,37.3125,1.21337,9.33306,-3.45094,-0.00757703,0.00542961,-0.00218716,-3.21348,-20.3022,5.88958,34.6875,9.35485,-2.59232,-1.40915,0.00747424,-0.0181341,0.0010664,-14.8805,-3.90869,21.6887,2
walking,127.0,32.875,-5.61961,1.8395,-0.088777,-0.469331,-0.869493,3.29255,52.3293,-26.0322,-29.9736,37.125,0.970783,8.41611,0.0325292,0.16281,0.167967,-0.237969,17.8333,-35.5649,46.1487,34.4375,8.99208,-0.377086,-2.73866,-0.79177,0.27463,-0.630845,-49.7261,-25.8972,-16.6323,1
cycling,116.0,29.5,-8.62532,0.524574,7.18324,0.383739,0.045024,0.0100455,44.9579,0.0809762,-30.3021,34.3125,-0.0798163,1.84305,-9.142,0.074905,-0.0307424,0.424605,13.2647,4.5257,41.1078,33.125,10.0819,8.67692,3.5836,-0.253305,-0.232966,0.293767,-19.9816,-26.9643,1.55608,2
transient activities,110.0,32.625,-7.68069,4.88113,3.02605,-0.121574,0.0755108,-0.0164599,29.9512,-52.2354,-31.3353,35.4375,0.755753,9.40708,1.69041,-0.121642,0.120542,-0.0608056,-10.7314,-47.5266,-6.15865,33.4375,9.42345,0.233669,-3.47123,-0.0163359,0.00666461,0.0343213,-62.1828,13.7665,44.9997,4
walking,100.0,32.4375,-11.3981,5.06748,3.62403,-0.541087,0.00200934,-0.317606,49.7896,-11.0828,-3.80385,36.6875,-0.266884,14.295,0.145882,-0.556165,0.33431,0.11782,-3.84404,-39.1361,-9.96549,35.0,10.9714,-17.7011,1.71118,1.30116,-0.015679,-2.76126,-31.3738,32.5228,28.4919,6
transient activities,117.0,32.6875,2.70575,7.79137,2.40207,-0.893239,-0.84222,-1.9396,1.17,-54.7456,-3.42673,37.0625,0.0657936,13.1075,-2.67086,-0.263111,-0.631328,0.101578,-17.1089,-50.369,20.8378,34.375,14.0457,0.237013,-2.76783,-0.89835,0.741428,-1.99347,-29.0239,-31.6348,11.8539,1
running,139.0,31.0,-9.37218,-2.79277,0.486438,0.432946,0.211223,-3.41825,-38.0791,-56.4524,-40.6074,34.125,0.0160565,-1.93856,-0.377041,0.711653,-0.81884,-0.514749,7.04585,-74.3799,-19.8917,33.3125,13.912,-5.13437,-5.12842,0.731863,0.726757,-4.2777,-48.4684,-41.6527,-13.2211,1
rope jumping,175.0,33.8125,-7.39179,14.2348,-15.6291,3.97611,0.705009,2.81151,19.2606,-31.895,25.2553,36.5,-0.178093,10.9686,-1.7003,0.182858,-0.289711,-0.262953,24.8198,-42.3925,-3.96638,34.125,19.5872,-2.08037,-2.19495,-1.48846,-0.723168,-2.09147,-44.9974,-14.3917,-1.00263,5
running,171.0,30.6875,-11.797,9.74174,-0.130992,-0.636238,3.08314,5.09167,-39.6029,-49.804,-17.6041,33.8125,0.210879,15.2215,-1.82324,-0.94671,3.25051,-1.22759,-12.1838,-61.6319,-11.831,33.125,16.0773,7.32136,-2.40506,-0.888768,0.853479,-0.837574,-58.2174,-7.71716,33.2664,1
Nordic walking,131.0,34.625,-0.382026,10.6573,-2.27234,-0.118168,-1.49365,-2.009,25.0688,-33.358,-28.0278,38.375,-4.14118,10.2688,-6.84227,-0.162778,-1.16756,-0.234423,17.4435,-38.2743,17.8146,34.25,23.2108,-3.33019,-10.0223,0.543419,-0.449732,-4.78314,-19.1702,-37.9354,4.93065,5
lying,72.0,33.9375,6.49143,-2.177,6.87996,-0.0546891,-0.016798,-0.0102102,-40.259,-7.15271,-15.5874,36.9375,1.10952,-0.482326,9.43444,0.0345182,-0.0254018,-0.0121471,35.06,14.9048,-30.0243,33.4375,-0.988056,6.55937,-7.63058,0.0329944,0.00625442,0.0108151,-14.5729,9.18184,37.7972,8
cycling,81.0,29.8125,-6.34991,-0.059004,7.56568,0.0265602,0.0565345,-0.0109598,30.5392,-7.58813,-25.7018,35.3125,-0.0517696,6.97595,-7.37702,-0.00615405,-0.0271495,-0.011181,0.184777,-9.92344,30.7879,34.3125,9.48002,2.41199,-0.589953,-0.0135792,0.0152162,0.00920113,-27.2572,-10.8438,17.7775,6
ascending stairs,136.0,32.1875,-8.86948,1.66668,3.17304,-1.47736,0.660201,-0.293546,36.9971,-16.6378,-39.7651,36.75,-0.925347,9.02633,0.267241,0.249846,1.49517,0.192511,11.674,-39.8478,-12.7879,34.375,5.89477,1.43666,-13.278,4.34906,1.61724,2.67857,-54.8445,-0.298674,5.3439,3
rope jumping,129.0,30.1875,-1.52783,8.09864,3.33829,-0.407958,-0.0328708,0.146763,47.9066,-46.9721,-23.3206,33.6875,-2.05171,9.42145,-3.08445,0.0646007,-0.0960801,-0.0369751,45.6388,-50.7027,23.7507,33.125,9.78087,-1.53438,-1.10263,-0.0500295,-0.0379918,0.0739885,-59.8467,30.544,-19.5371,1
ascending stairs,154.0,33.625,-7.15254,5.94701,3.87709,-0.00262617,-0.0370652,-0.0202117,21.3482,-24.4629,-13.6387,36.8125,1.16962,9.80973,0.186485,0.00781989,0.0402412,-0.0167336,-9.79343,-23.5889,8.37642,35.125,9.65646,-0.682854,-3.00008,-0.0277531,-0.0252629,-0.0219376,-26.4387,14.7582,25.4096,6
ascending stairs,154.0,32.5625,-11.1319,3.77818,3.94026,-0.870986,0.230444,-0.734011,37.783,-6.25197,-47.1154,35.375,-1.60592,10.6592,-3.58377,-0.0438902,-0.494937,-0.168283,21.977,-42.9336,-2.85505,33.375,24.3693,8.14219,-6.99446,1.31609,0.296536,-3.1238,-49.2841,0.365161,-2.73681,4
vacuum cleaning,122.0,33.5625,-4.03301,10.3887,6.87236,0.408314,-0.648887,-0.748196,42.9149,-39.2438,-0.960242,35.5625,0.953103,9.92871,-4.5805,0.50913,-0.602152,0.149499,-2.74808,-23.3426,55.5366,34.4375,8.51118,6.81729,0.0287957,0.437305,-0.532494,0.563758,-25.8967,-51.9184,-39.88,1
vacuum cleaning,134.0,33.5625,-8.56655,1.88196,2.06072,-0.0855623,-0.604577,1.12354,40.786,-3.10413,-26.1224,35.625,-2.06467,7.82927,-4.66707,0.562428,-0.494603,-0.0596125,10.9238,-49.115,13.5424,34.5,8.94827,0.277423,0.845655,0.976572,-0.253806,0.11878,2.73351,0.922969,-23.9544,1
transient activities,93.0,33.875,-7.88751,1.59177,-0.083425,-1.72419,-0.0501716,1.61888,9.09417,-25.8529,-26.5833,37.25,0.724125,10.549,-2.0698,-0.37222,-0.402786,0.13519,-4.16151,-30.1244,-4.06688,34.625,12.7532,-2.33486,-2.99666,-0.254211,0.540216,-1.79831,-33.2082,19.5005,27.4107,2
Nordic walking,137.0,33.0,-5.07253,10.4663,1.93015,0.0193304,0.334474,-0.98558,-12.8101,-39.6354,-5.6036,38.375,0.0719146,14.1249,-2.55789,0.422402,-0.366181,-0.163213,-8.70473,-37.5345,-13.3925,32.4375,4.69329,-5.0666,-1.71173,-0.0670397,0.462032,0.116444,-28.8621,-29.5496,21.4812,7
transient activities,103.0,32.3125,-0.360305,-8.98326,3.49038,0.00272331,-0.00827406,0.0192251,18.7463,23.946,-19.0451,36.9375,0.290594,9.7743,0.0932336,0.0286858,0.0462281,-0.0253522,1.49311,-26.5905,13.8302,32.4375,9.55457,-0.380964,-2.69428,-0.0161152,0.0435879,-0.00471876,-33.0551,11.1764,8.6543,8
transient activities,118.1818181818182,28.1875,4.27149,2.72574,-2.59924,-0.825486,-1.87816,-0.685338,-3.21916,-39.2975,8.24719,31.875,0.235937,8.55773,-1.64624,-0.00262824,0.220801,-0.0255444,3.34256,-22.7382,40.5527,30.125,18.1595,4.26995,-2.28759,1.28604,-2.24098,4.23737,-49.3478,1.87484,9.90194,2
sitting,76.0,32.875,-2.05843,6.35165,6.91556,-0.0504342,0.0395979,0.0601849,9.20539,-21.8349,-22.1602,35.0625,0.262996,10.1444,-0.876493,-0.161125,0.00354747,0.0637162,4.1473,-24.4807,-0.686808,33.8125,9.53569,2.11291,-1.20496,0.0525378,0.0604557,-0.0201347,-5.1072,-6.01276,22.3884,4
ascending stairs,114.72727272727272,31.875,-14.1301,5.53038,2.08054,-5.29311,-0.585084,3.67826,44.363,3.74348,34.5523,36.75,2.39897,8.98285,-4.55123,-0.0930709,1.06837,0.0434178,-26.0049,-17.1051,20.5026,34.4375,11.7318,4.23191,-2.00597,-0.0993864,-0.0428225,-0.430339,-19.9685,7.619,64.9282,3
standing,76.0,33.3125,-8.5365,4.89974,0.126618,-0.0026048,-0.0251672,-0.103387,26.9561,-20.9104,-6.45387,36.0625,1.8241,9.53702,-0.846237,0.0136686,0.0010656,-0.023754,-3.02132,-30.2723,-5.63895,32.5625,9.26224,0.352057,-3.89811,0.0331826,0.0119545,0.0124446,2.83754,-6.30701,13.3395,7
lying,79.0,31.5,7.02596,5.61343,8.70908,0.489907,0.461329,-0.362846,-39.7945,28.1015,-32.9642,33.25,8.68939,3.22968,5.18422,0.511054,-0.434387,-0.114138,-15.1949,-5.98246,-62.0585,31.875,-0.506576,-2.00413,-10.1194,0.292941,0.174895,-0.0609666,-22.7507,37.8468,22.0746,1
ironing,104.0,33.375,6.77486,5.02022,1.58716,-0.852858,-1.25379,2.43954,-54.7948,-61.7523,-26.9329,35.25,-0.303041,9.25566,-4.48491,-0.0170406,-0.455858,0.0533989,-14.4376,-59.933,-6.10172,34.125,9.83227,-0.968298,-0.719721,-0.0626743,0.130765,0.011731,-58.3884,-4.45542,45.8042,1
transient activities,112.0,28.375,1.30563,9.4302,1.99069,1.55574,0.0907546,0.39867,17.9823,-27.5156,-22.2747,33.8125,0.51222,9.69672,-0.134825,0.190759,0.0542363,0.100858,18.0442,-25.6482,8.7228,33.9375,9.90592,0.704737,-1.07665,0.398537,-0.388016,0.286939,-35.2952,-7.40169,1.29271,6
transient activities,140.0,30.875,2.56135,-5.7274,1.02148,-0.0230893,-0.811592,-0.0120582,15.5112,40.1197,-30.0289,34.0625,0.977642,7.55216,0.345229,-0.0396324,0.0858702,-0.35509,-15.5024,-35.3864,21.9401,31.6875,2.57651,0.227764,-2.15219,-1.34886,-1.53361,-2.53196,-24.1678,42.4594,-16.3132,8
transient activities,110.0,29.75,-4.21414,16.3099,6.96514,1.08359,-0.319697,-0.526535,25.4197,-19.4713,-18.2704,35.0,0.0151162,9.66903,1.09533,0.0442506,-0.0145128,0.0482096,1.78601,-21.5644,7.03544,33.0625,9.57351,0.716271,-2.23782,-0.0413553,-0.029065,0.029194,-36.5192,-8.75056,3.41745,4
transient activities,94.0,35.5,-10.4614,1.51649,1.95659,-0.328356,-0.939544,3.54031,20.7156,-38.3319,-19.4588,37.625,1.27584,5.44236,0.318768,-0.00254608,0.315498,-0.389045,-5.88842,-29.894,-19.4795,34.4375,9.63137,0.416545,-2.77562,-0.476488,-0.031917,-0.443833,-9.34519,45.1568,13.9461,5
transient activities,100.0,33.75,1.28716,2.34957,-9.07006,-0.202083,-0.286836,-1.68369,-17.4074,-3.50491,39.1164,37.75,0.348685,8.95344,-4.31723,0.159917,0.0830619,-0.184281,-23.6588,-39.8923,11.0689,35.125,9.6708,-1.53431,-1.02658,0.112334,0.00482571,0.0630013,-47.9439,-1.83298,53.2973,2
transient activities,100.0,34.25,-9.61026,-1.30707,0.939708,0.0564149,-0.0313311,-0.061871,37.1218,7.70028,-20.4273,37.5625,0.53435,9.85226,0.600769,0.0577215,-0.00430434,-0.000835032,-0.899158,-30.9922,-8.7222,33.8125,9.46829,-0.0349177,-3.16039,0.0560203,-0.044341,-0.00692899,-1.40726,17.2292,20.6725,8
Nordic walking,124.0,30.375,-11.1649,8.01161,2.11658,0.123574,-0.128337,3.28495,40.2306,-27.5899,-15.0385,35.3125,-0.88623,8.23006,-6.0797,-0.74797,0.260612,-0.768368,2.40149,-42.2287,12.5644,34.125,10.3258,0.585653,-0.762893,-0.199558,-0.2505,-0.642089,-39.9992,21.029,21.665,2
transient activities,126.0,32.0,8.0503,3.91086,5.92059,0.0994285,-0.290081,0.228646,-16.9234,-19.1652,-23.0885,36.5,-0.362883,9.11784,-2.62694,-0.260048,0.268996,0.305387,10.3116,-26.4594,18.8346,34.5625,12.7517,-4.99505,6.62864,0.776472,0.366285,-2.26908,-16.6218,12.1364,14.3235,2
cycling,130.0,28.125,-7.738,-0.483018,1.38833,-1.12555,0.90241,-1.27716,69.3819,11.8204,-6.3446,33.4375,-0.364711,2.64754,-7.25245,0.991205,-0.00120241,-0.533976,26.8565,7.37437,60.3452,32.75,9.91733,-2.16722,-2.75666,0.770426,0.175952,-1.66669,-51.1027,-26.7348,-11.3635,4
lying,70.0,33.375,4.96039,-0.257054,8.08215,0.0200272,0.0209608,0.00702527,13.5677,24.7046,-40.0363,35.4375,0.457096,-1.30919,9.34786,0.0200704,-0.0323491,-0.0316453,37.0352,16.6337,-26.4952,34.5,-0.167367,-9.61696,-3.3541,0.0111747,-0.0324614,-0.0321432,-16.9498,26.9415,-4.78138,6
transient activities,97.0,30.0625,-8.37028,0.774272,1.41311,1.28185,-0.146609,-0.322828,49.1272,14.2739,4.44257,32.375,-0.318926,9.44896,-3.75012,1.01782,-1.57649,-0.0343254,3.72894,-30.0511,37.5541,29.9375,8.78656,5.2027,-7.05884,-3.59885,0.13591,0.618484,-49.8225,-46.0136,21.4265,7
ironing,88.0,34.75,-4.17568,-9.53009,6.86045,-0.879756,0.246882,-0.798771,7.94225,27.4864,-40.5667,38.0625,2.02104,9.34971,-0.609734,-0.189305,-0.251592,-0.139826,-8.19449,-37.6827,-12.9651,34.75,9.4497,2.29608,-0.319417,-1.69281,0.407367,0.336946,-34.6027,-17.0031,-12.1678,8
ascending stairs,97.0,33.75,-16.1555,3.59036,3.98111,2.30235,3.63351,-5.64225,47.2101,-8.36471,-41.6099,36.8125,-2.65064,4.44367,-10.0102,-0.697206,-0.180905,-0.607575,29.4537,-33.4393,26.754,35.1875,11.9613,4.15771,-7.05839,0.806961,0.178383,0.288599,-68.6605,-30.2085,-1.91852,6
vacuum cleaning,120.0,33.6875,-7.95891,6.17595,-0.908194,1.48574,-0.907778,1.28217,39.4563,-6.46984,-53.6791,36.0,-2.08937,2.2193,-10.1477,-0.276915,0.380206,-0.341441,14.3012,-46.1652,28.2719,34.4375,10.8467,0.235023,-4.7301,2.11328,0.364553,2.38917,-45.352,23.1401,15.6888,4
running,136.0,28.3125,8.71073,1.68329,-0.720317,-0.801009,1.00087,1.65902,20.4282,-42.652,-7.75235,33.4375,6.04519,5.85654,-8.50199,1.2456,0.0870645,0.296482,-12.0713,-38.8395,-3.25621,33.875,-4.10906,3.73153,34.3018,0.852078,-0.0944174,-7.69757,-36.6902,22.9949,25.6477,6
Nordic walking,146.0,32.3125,-6.9538,5.51187,2.07263,0.124444,-0.664327,4.93635,48.6016,-44.1544,-0.152469,36.875,-0.976657,6.33417,-2.51285,-0.00682538,-0.0712282,-0.642551,-24.5292,-53.181,25.502,34.125,9.74908,0.196779,-3.85356,-0.105504,0.501834,-0.359077,-51.8256,-21.7828,37.025,1
cycling,116.0,34.5625,-3.93539,-0.268047,7.52557,-0.704297,0.107998,0.257739,12.5592,-1.93219,-54.4395,38.1875,-0.317078,7.54158,-7.38366,-0.0378785,0.238109,-0.309409,2.03519,-42.987,11.812,34.4375,10.5029,4.99846,-1.94615,0.043798,-0.305752,-1.58253,-44.987,-3.12488,21.5356,5
transient activities,114.0,32.4375,-4.6811,6.63187,2.02592,0.572727,-0.826696,0.418884,36.7437,-26.0606,-33.6144,37.0625,1.07122,8.76265,-4.34224,-0.00838107,0.021931,0.0972038,10.2041,-37.0661,6.07053,34.9375,14.0476,17.7286,-6.00212,0.906883,-1.42265,5.11371,-19.8612,44.9755,17.5472,2
cycling,121.0,32.8125,-4.55516,-0.209761,9.24803,-0.380793,-0.215874,0.464586,61.1947,28.4844,-50.1293,37.875,0.51252,8.77,-9.07635,-0.17615,0.449079,-0.644234,28.4018,-32.7892,58.61,32.25,13.9062,0.501172,-2.46218,-0.266653,0.207622,-0.370926,-60.9929,5.84639,-1.08237,7
lying,114.0,32.5625,0.139968,-2.79085,9.01916,-0.0867416,0.0053874,-0.00406349,39.256,9.06215,-40.1247,34.4375,-0.449036,2.38343,9.28072,-0.00844055,-0.0346346,-0.00689937,41.1713,0.49098,-28.0668,33.125,2.09925,-9.62069,0.0264633,0.0525834,0.0381685,-0.0502776,-20.1839,19.228,-12.0172,4
standing,81.18181818181819,32.4375,-8.94669,2.76515,2.89877,-0.0235273,0.0179421,-0.0136954,32.5959,-13.075,-9.23966,35.5625,0.0775206,9.62803,0.631942,0.0557758,0.00987376,-0.0111478,-4.53348,-28.629,-7.38011,33.375,9.7801,-0.203228,-1.38103,0.0197475,0.0173924,0.0195499,-6.70006,-3.00402,23.2405,3
vacuum cleaning,116.0,33.6875,-5.3957,2.30249,5.18579,0.249616,-0.114504,-0.617705,8.92178,-15.7631,-57.6291,36.0,-1.53529,4.48887,-8.36383,0.26946,-0.116977,-0.140446,8.11447,-43.0971,25.8143,34.4375,9.67489,0.528607,-2.58292,-0.0840215,-0.0865568,0.0553256,-37.3371,46.7116,24.0577,4
standing,99.0,32.9375,-8.35526,3.41077,3.48276,-0.0184996,0.0286576,-0.0224754,66.7295,-29.562,10.3285,34.5625,0.473431,9.72556,-1.45213,-0.0407112,-0.0102005,-0.0375145,-30.2188,-53.357,28.8476,33.3125,9.16167,-3.54003,-1.44384,0.0228153,0.0342313,0.00947524,-98.8348,-27.8045,33.7556,1
cycling,115.0,32.5625,-4.90138,2.09177,7.50314,-0.0282335,0.0673869,0.053016,36.6786,12.4199,-49.4573,37.3125,1.46418,9.48788,-2.7112,0.1037,0.166585,-0.115588,22.1805,-40.8873,6.30003,32.0625,9.18941,-0.104377,-3.74166,0.074983,-0.0022374,-0.102588,-47.1173,22.0346,3.91178,7
cycling,120.0,32.0,0.685143,7.46395,10.6477,0.706648,0.516103,-0.425095,-4.57216,-44.6682,-41.9057,36.625,0.552963,6.62546,-8.7976,0.284319,0.130349,-0.300525,-20.2899,-52.2619,31.6964,34.0,11.3501,1.54727,-3.07373,-0.230897,0.162954,-0.469718,-59.1285,2.43757,35.3626,1
sitting,82.0,33.5625,-4.46322,1.48824,8.28149,-0.0259797,0.00552894,-0.00744333,15.4078,-7.89932,-28.6876,35.875,0.923728,8.22344,4.91114,0.0653638,0.0539622,-0.00249455,3.51675,-18.6392,-14.6838,34.75,9.50638,-1.17614,-2.92138,0.0152429,-0.0158655,0.010561,-18.5629,-2.79825,11.7,6
running,151.0,30.9375,6.28933,-9.98176,3.7473,0.870216,-0.139742,-3.89515,19.4298,39.7915,-22.5546,34.1875,-1.00213,2.75347,-3.04376,0.0439094,0.0514129,-0.104451,-0.539833,-40.9309,-13.4574,31.6875,12.2802,-18.9592,-3.32283,3.52028,0.610626,2.1628,-37.2922,-23.8549,20.0266,8
ironing,98.0,33.3125,-0.991099,3.79858,6.63226,0.684673,-0.504858,-0.0764724,2.39543,-75.9159,-72.0646,35.125,-0.136459,9.4089,-4.01774,-0.0966753,-0.226614,0.129192,-34.0767,-61.8407,5.36519,33.9375,9.59472,-0.914367,-2.49761,0.0269364,0.0372346,-0.0700473,-52.6771,-16.7598,51.6914,1
walking,121.0,30.4375,-10.5671,9.24523,0.581878,0.338436,0.357702,-4.49352,22.5215,-27.5654,-13.2152,37.0,-0.909341,14.0637,-0.949192,-0.21437,-0.494912,-0.115171,6.11717,-31.4976,10.7966,34.625,5.09876,-14.101,2.4004,-1.48336,-0.301027,0.510458,-13.9399,-26.0446,16.1224,3
walking,111.0,30.8125,-11.6151,7.14486,2.38217,-3.39576,0.178533,1.94118,46.617,-18.7379,-13.1997,35.5,3.85881,9.4325,-4.17776,0.0994273,0.479321,-0.0274694,-1.22014,-38.0681,-13.9014,33.375,11.5993,3.73348,-1.30962,0.0759879,-0.499143,-1.26916,-38.1915,24.7271,20.1089,4
standing,99.0,33.125,-8.77675,3.66786,2.16701,-0.155195,0.0410812,0.0597002,30.3358,-22.9519,-6.05464,35.1875,0.612667,9.77723,0.679873,-0.00821967,0.0788567,-0.0215821,-1.15399,-29.1754,-10.5673,33.875,9.5191,0.417256,-2.77678,0.0195537,0.0160083,-0.0308789,-1.72625,1.31012,30.6181,4
transient activities,153.0,34.0,-0.877266,5.02685,-0.143956,-2.62572,0.577449,2.56408,10.6046,-24.2686,4.20035,38.0,0.230364,9.17868,-4.47499,0.0813756,-0.0773976,0.00649615,1.58293,-11.8062,24.6057,35.1875,9.34469,-1.36182,-3.30778,-0.030039,-0.0228148,0.0426739,-20.3615,-18.6195,39.2769,2
transient activities,101.0,34.4375,-10.0739,1.74322,2.19256,1.38584,-0.629353,-2.61573,30.5416,17.6654,-12.5881,38.1875,-1.71187,7.34996,-2.99412,-0.377857,-1.04577,0.454643,4.65016,-17.0339,35.1869,35.4375,19.1189,2.25833,1.5551,-4.45492,-2.13561,5.21423,-31.8099,-24.8402,-2.40921,2
transient activities,151.0,33.5625,-6.12484,2.74138,6.9438,0.00898681,-0.0300639,0.0135899,3.5338,-14.0784,-10.3848,36.75,3.29133,9.47026,1.11661,0.0776053,0.0349114,0.00676183,-4.8971,-12.4013,-9.98361,35.125,7.19985,4.89139,-4.91217,0.125702,0.0288265,0.00103021,-23.1628,-6.64388,26.8643,6
Nordic walking,139.0909090909091,32.5625,-12.4685,8.24527,5.86803,0.388707,-0.066732,-0.102125,43.5582,4.82073,-45.6269,37.0,0.461291,13.4946,-0.922511,0.28267,-0.640292,0.285948,25.5698,-53.988,4.197,34.3125,12.9841,22.2828,4.3779,-2.27476,-0.526536,1.54608,-37.6444,51.5741,-8.72559,1
transient activities,105.0,34.4375,-25.7298,1.50941,-3.7373,2.25338,-1.29638,-2.01344,29.9887,-20.9732,-26.4228,38.1875,2.92694,22.0807,-16.278,0.377006,-0.946199,0.505894,11.9277,-34.7931,7.81584,35.4375,2.43644,6.72841,-3.04294,0.740905,-0.220183,-1.86505,-31.1713,22.349,6.62964,2
lying,61.0,30.6875,0.365402,4.48833,8.57462,-0.00599782,-0.0157129,-0.0321004,-5.26961,16.7797,-33.2573,33.25,0.733262,2.22939,9.34136,0.0106212,-0.0105989,-0.0161592,35.7775,4.04749,-32.2137,30.5,-1.06421,-8.9165,-4.75687,0.00413967,0.00972451,0.0107717,-12.4219,28.6389,-7.46223,7
vacuum cleaning,127.0,33.5625,-6.12134,6.77627,8.39276,-0.129681,-0.638132,-0.861832,13.8669,-46.6288,-23.39,35.5625,1.04468,9.82781,-2.75863,0.0442062,-0.177368,-0.206787,-19.2707,-36.1033,-3.8139,34.4375,10.2309,-1.15722,-1.13895,0.333826,0.660573,-0.450961,-19.0034,0.14394,60.2608,1
lying,78.0,34.875,0.905251,7.61082,6.0705,0.00554114,-0.0252462,-0.0213947,-9.37052,7.93925,-33.7203,36.625,-0.295039,1.66832,9.402,-0.0213169,0.00432043,-0.0258025,39.5532,5.45158,-28.2473,34.125,-0.417957,-9.11359,-4.36312,-0.00055693,-0.00535852,0.0271604,-13.5661,28.9564,-6.4738,5
transient activities,115.0,30.6875,3.41507,8.90027,-0.246677,-0.144428,-0.33869,0.0492523,-7.92989,-28.06,-6.62247,35.6875,0.469285,7.99622,-6.59647,0.0628053,-0.0041933,0.0987742,-0.663489,-23.7236,16.3428,34.25,9.47638,-1.44425,-2.61131,-0.0286708,-0.000849858,-0.021711,-25.0176,2.95783,13.3041,2
transient activities,128.0,33.25,-4.88156,3.34532,3.45804,-0.0581447,-0.189856,0.443737,6.74522,-6.44868,-35.3717,37.6875,0.667556,8.19166,0.105207,0.319923,0.103141,0.0551835,19.3754,-28.7682,-14.3749,32.125,-1.22893,9.71228,1.68606,1.44732,-0.646859,1.96279,-50.7506,10.5819,-11.9729,7
transient activities,114.0,33.8125,3.81775,1.95582,8.44244,-0.0512507,0.0245841,0.0321148,12.0818,-23.8593,-35.9331,36.6875,1.98375,7.77214,-5.60028,-0.0692575,-0.0837409,-0.0159169,-1.33248,-16.8284,27.7145,34.0,9.46573,0.954514,-3.43668,-0.00242779,0.0201808,-0.0190815,-22.3602,-8.13277,15.8059,5
cycling,114.0,34.625,-7.20519,5.28142,5.76443,-0.155286,-0.268441,0.266127,40.6574,-16.8192,-31.8342,38.25,-0.248476,8.26336,-6.41674,0.0588255,-0.344344,-0.0441827,-3.42979,-30.9452,35.2533,34.4375,5.43719,2.68265,1.91382,-1.22997,-0.854843,1.47485,-18.0839,-22.2102,29.4532,5
ascending stairs,121.0,32.375,-1.1405,3.91872,-9.68903,-1.01654,2.87597,-1.82787,15.2474,-46.5528,6.80021,37.0,0.991875,7.43635,-5.61716,0.184328,1.8202,-1.24737,29.3819,-34.9009,29.1639,34.9375,10.0369,-0.366162,-0.219695,-0.0227291,0.183346,-0.592654,-13.3422,-26.1596,6.46152,2
lying,78.0,31.4375,4.11108,-4.26468,-7.96629,0.0506231,0.0206728,-0.0226659,18.2214,52.7868,28.2051,33.25,9.3113,3.30839,0.432559,0.0772482,0.790075,0.00435569,-30.7144,-5.44699,-51.7515,31.875,-1.15097,2.13647,-9.88158,0.120253,0.0430538,0.020055,-21.7073,21.1465,39.217,1
descending stairs,109.0,33.8125,-16.997,2.5033,-3.7253,3.245,-1.22088,-1.01288,22.6971,-10.5259,-34.1982,37.75,5.29014,26.1873,-3.70291,0.241276,-0.43187,-0.140425,14.5362,-28.8524,-9.75499,32.6875,19.4536,14.0783,4.49516,1.80108,0.328755,-3.97298,-26.0611,18.5535,9.09585,7
ascending stairs,150.0,33.3125,-10.1552,4.97128,2.44986,0.177026,1.76039,-1.68284,43.5199,5.23682,-38.5354,36.6875,2.43321,8.24675,-2.03136,-0.625546,0.684833,-0.356697,26.6262,-38.3363,-0.169725,35.0,14.2171,-3.01319,-0.0832196,-1.33827,0.880338,-1.88226,-50.9457,-10.7825,-12.7998,6
lying,63.0,33.4375,4.93383,-0.178201,8.38938,0.0241259,0.0137113,0.0143651,14.5688,24.0308,-39.7718,35.5625,0.457693,-1.08327,9.34714,0.00319829,0.0197444,-0.0517658,37.18,16.5003,-27.3395,34.625,-0.168974,-9.50241,-3.432,0.0523825,-0.0276321,0.0215767,-16.8178,26.8066,-4.63892,6
transient activities,109.0,32.25,-11.5628,3.3231,3.58896,0.169427,0.0468636,0.931477,23.8798,6.17066,-24.4594,34.0625,2.80222,12.8801,-1.57508,-0.455442,-0.0488657,0.312158,14.8746,-24.8826,5.03029,32.75,12.4472,9.91939,-1.60944,3.5552,0.215768,-2.46957,-32.8793,15.2208,-13.9011,4
ironing,81.0,33.0,-1.43395,9.2657,-1.82155,-0.0684751,-0.40874,-0.141698,3.40175,-41.4536,-23.2144,36.4375,-0.879123,9.93119,0.458742,-0.0412342,-0.0200901,0.10306,5.99857,-32.4589,-18.0123,33.9375,9.85112,0.329785,-1.61514,0.0348974,0.0155499,-0.0229654,-56.4433,1.27412,32.7289,3
cycling,114.0,29.6875,-4.69906,5.83326,6.03103,-0.103857,-0.250468,-0.261555,24.4271,-22.8084,-36.3315,34.5625,-1.16507,3.23464,-9.90189,0.244655,-0.302342,0.0335113,5.4603,-17.8623,37.2819,33.4375,9.52518,0.518871,-1.27235,0.165685,0.974405,-1.95225,-41.5342,8.66321,18.0798,2
vacuum cleaning,82.0,33.0625,-0.435242,7.69108,1.16225,0.689117,0.752601,1.6195,28.7662,-19.486,-9.61209,36.5625,-0.58482,7.48445,-4.83274,-0.466255,1.88117,1.07104,11.0817,-30.7735,11.2406,34.0,9.68527,-0.653237,-1.99664,0.360426,-0.0705632,-0.20961,-22.6523,-11.3053,17.7124,3
sitting,83.0,33.5,0.170189,8.92784,4.20765,0.00760367,0.00652821,-0.0228488,3.35387,-23.1335,-18.7284,35.75,0.706998,9.70583,1.30135,0.00394658,0.0184498,-0.0316533,3.72613,-24.9755,-5.90409,34.6875,9.50638,-1.17614,-2.92138,0.0203578,0.011483,0.00216579,-18.6653,-3.17477,13.2602,6
walking,119.0,29.625,-13.9009,5.11264,2.23933,-0.938038,-1.97195,1.6607,41.115,-9.63036,-19.3685,36.875,-0.909211,9.35991,-0.50797,-0.330453,0.921015,0.255406,-0.916578,-34.44,-8.3137,34.5625,9.6907,-0.872292,-3.07573,-0.200662,-0.36856,-0.595147,-35.8907,21.2723,17.3017,3
walking,95.0,32.0,-10.3932,3.19877,-0.780664,-1.44925,-0.968423,4.05367,45.2136,-11.8423,-20.0627,36.5625,1.97044,8.38611,1.6383,-0.350303,-0.0191123,-0.0693733,7.76008,-36.1192,25.2082,34.9375,10.6305,-0.080879,-3.07101,-0.793756,0.0283406,-0.926987,-38.1507,-19.2099,8.95529,6
walking,112.0,34.75,-8.585662500000002,9.0683275,0.5736679899999999,1.264922,0.02477453575,-1.2588175,38.58085,-19.61935,-24.135975,38.3125,3.37609,11.8164,-2.68413,0.417237,0.63018,-0.137931,10.6272,-34.1493,13.5136,34.375,10.2989,2.19061,-2.00799,-2.94901,-0.0935097,-1.5569,-40.9863,-8.36302,15.5988,5
walking,119.0,29.375,-7.95503,4.94668,1.63618,-2.94466,1.21998,-5.05253,7.17175,-35.5459,-25.7399,36.875,0.838171,9.43712,0.607622,-0.0127893,-0.0878023,0.0913184,2.4673,-32.5898,-15.2468,34.5,0.843383,-3.0496,0.667417,-0.108941,0.406754,2.39238,-37.4465,-8.4215,22.6915,3
Nordic walking,126.0,30.5625,-4.68648,3.27821,0.382195,0.205599,0.25594,-1.01075,-2.62794,-46.2663,-27.942,35.5625,0.464246,14.598,-4.79814,-0.399561,-0.212408,-0.116571,0.319564,-42.3313,19.1519,34.1875,17.1993,-4.463,-1.51004,-1.70054,0.531339,-3.04761,-39.9139,-14.6598,25.4921,2
vacuum cleaning,109.0,33.9375,-14.2497,2.30932,-1.79762,-0.930133,0.225698,1.17273,4.81134,-24.8099,2.93211,36.75,0.495832,9.83478,-1.99418,-0.165929,0.26471,-0.439973,-4.04572,-19.2695,-8.38764,35.1875,11.6643,-0.46367,-3.48251,-0.438131,-0.133863,-1.63181,-31.7178,19.1534,29.4991,6
lying,78.0,32.5625,3.88775,0.590432,8.56356,0.0378305,0.0974257,-0.0211909,24.7259,4.61977,-48.8609,34.5,-0.17791,1.85675,9.48095,-0.0470903,0.0021621,-0.00618411,39.5607,4.80632,-28.1025,33.1875,1.73048,-9.63061,1.52774,-0.0287412,-0.00470286,-0.00362939,-19.8848,16.1173,-13.9982,4
cycling,143.0,33.875,-7.14699,7.34233,11.3775,-1.69818,0.581423,-1.14961,45.8631,-1.96246,-39.5463,37.1875,1.06204,7.73579,-5.84919,0.175988,-0.0627982,-0.566932,17.4138,-17.016,38.8443,34.0625,13.5771,-1.40026,-1.83632,-0.422134,-0.0299454,-0.810758,-39.9916,-16.4132,9.37107,5
rope jumping,158.0,28.4375,-0.0220675,-2.72394,-17.4628,-0.720903,2.72311,5.87945,24.3618,-38.7295,-8.03312,32.125,-2.37049,-2.003,0.0833049,-1.15486,1.31294,-0.579784,-17.4697,-30.8113,21.8394,30.3125,6.25848,-2.35808,0.178404,0.583215,0.848273,1.46015,-36.246,-8.05338,33.4544,2
walking,96.0,31.6875,-9.80341,4.23246,0.764178,-1.09661,-1.10272,2.01341,54.2746,24.0561,11.9843,36.4375,0.0613516,9.26818,-2.46486,0.270772,0.459541,-0.00797107,-10.9569,-48.211,39.2471,34.875,9.09983,-5.05372,-2.01392,-1.56628,-0.00498608,-0.788327,-42.4628,-17.528,26.0999,6
transient activities,82.0,34.125,-10.2614,3.02292,0.87686,0.0024194,0.295076,-0.798228,28.3927,-1.9864,13.9007,36.625,1.70702,9.80017,-0.965376,-0.0229988,0.0130932,-0.154036,-19.7517,-20.9084,16.3292,35.125,9.57148,-0.299161,-3.42782,0.0211399,0.134269,0.0828809,-22.5513,-26.5791,44.0512,6
ironing,89.0,34.3125,-2.77945,8.78883,3.0478,0.244855,-0.0425115,-0.0422232,-15.487,-52.9954,-22.0809,37.625,-0.824363,9.14721,-4.06807,0.0357999,0.0982991,-0.0770172,-0.728108,-34.5036,-2.05945,35.0,9.6605,-1.60735,-1.37354,0.00398286,0.00413177,0.0185963,-37.3015,13.6599,37.9031,2
cycling,115.0,29.6875,-5.86106,5.40975,8.55522,0.415256,-0.0391321,0.0311372,24.8908,2.9962,-51.0823,35.25,-0.820612,3.78698,-6.02535,-1.10298,0.276372,-0.461253,3.16665,-38.5287,24.9079,34.3125,13.4058,3.52905,-0.903932,0.47546,0.123406,-0.296503,-45.4059,15.0398,18.3928,6
standing,90.0,35.1875,-8.41549,2.4965,3.02309,0.0796571,0.0859089,0.0491738,27.4685,-20.7011,-23.5163,37.125,0.0779904,9.65701,-0.645935,-0.0782528,-0.138452,0.0432128,10.547,-32.1904,-6.8027,34.375,9.78511,-0.508904,-1.14754,0.00266392,-0.0632729,0.0179607,-26.7394,21.4595,22.5641,5
cycling,121.8181818181818,32.8125,-3.80121,-1.8067,9.53412,-0.110426,-0.150434,0.451011,19.8419,21.7619,-42.5246,37.875,0.933897,8.85319,-7.71375,0.0140374,0.375971,-0.0330859,22.3651,-30.9751,17.1024,32.25,4.37595,2.27962,-3.72864,0.826084,0.15669,0.653169,-41.7124,0.903439,2.25332,7
running,149.0,28.875,-9.68689,38.7829,-0.813154,-1.35397,2.70413,2.30006,36.1323,-24.971,-14.0375,32.1875,5.07754,15.2289,-15.0551,3.1216,0.870753,-1.92151,16.267,-23.8661,31.1863,31.6875,11.3053,4.94592,3.88943,-1.2936,1.15261,-4.43028,-37.0466,-14.3939,5.91444,2
transient activities,118.0,30.0,-9.58547,2.78936,0.810798,0.16339,-0.0379736,-1.08764,23.9056,-22.4736,-17.6896,34.9375,1.51203,8.11775,-4.83553,0.099074,-0.0225244,-0.162548,1.64852,-28.8165,2.76483,33.9375,9.85699,-0.649926,-2.53515,-0.0828795,0.0142925,0.208308,-27.7209,12.8495,15.0408,2
lying,72.0,34.125,6.45177,-2.25293,6.84114,-0.0217737,-0.000207824,-0.0059024,-40.2758,-5.91085,-15.5949,37.1875,0.954279,-0.670635,9.35479,0.0251918,0.0162178,-0.00477071,34.9281,14.6513,-29.6007,33.6875,-0.9125,6.48264,-7.59073,0.00201685,-0.00393368,0.0177277,-14.8342,9.32278,37.5125,8
Nordic walking,115.0,29.75,-10.2851,9.00201,3.31953,-0.584445,-0.846284,2.8481,29.2299,-38.4091,-12.1266,35.0,1.73713,10.7968,-3.91086,-0.693726,0.728259,-0.0153968,-10.8443,-39.6551,-6.62714,33.0625,9.47419,9.14909,-7.30782,0.889668,-1.30971,-3.37158,-37.6163,24.3273,25.2174,4
transient activities,171.0,33.8125,-10.9342,2.81257,2.21455,0.377893,-0.799231,3.05688,50.5464,17.9027,-22.6161,36.375,1.60595,9.20144,-0.461889,-0.211438,1.11461,-0.1883,0.943833,-42.0716,38.026,34.0625,9.27362,-1.05824,-3.23321,-0.28956,-0.295854,-0.909794,-40.7808,-23.4326,16.8935,5
cycling,116.0,29.5,-2.08945,2.37705,7.92918,0.83234,-0.200922,-0.186729,44.3688,0.790195,-32.0236,34.3125,-0.846859,2.06139,-10.628,-0.43571,0.146763,0.535209,14.144,2.26815,40.3827,33.125,5.76415,6.08912,-1.6928,0.00673794,-0.37815,-0.0755714,-20.3159,-26.9558,1.80647,2
lying,77.0,33.8125,6.92279,2.70925,6.33112,-0.0183151,0.0294537,0.00596307,7.29313,1.46975,-44.5533,37.125,1.24852,3.50301,8.61086,-0.0222664,-0.00289337,0.00175938,31.1234,-3.26492,-27.3979,34.625,-0.370518,-9.30688,-3.97554,-0.0349842,-0.0423589,0.0235719,-12.4493,23.7072,-4.27775,2
descending stairs,140.0,33.1875,1.47218,6.24184,2.00394,-0.88586,-1.68687,-0.415067,-34.5862,1.72137,-24.8389,36.6875,-1.79769,2.57767,-1.58621,-0.00637894,-0.65734,0.149424,16.4984,-45.8176,-11.4781,35.0,-0.106153,-10.1505,1.51213,-4.11213,-0.898476,0.790976,-62.5837,-9.74889,9.85119,6
ironing,95.0,34.0,-3.0573,7.45344,6.20411,-0.059659,-0.262249,0.0377863,25.093,-48.6285,-35.8092,36.4375,-2.22256,10.1126,-1.19247,0.143514,-0.193612,0.176257,-5.55032,-37.9133,-9.13828,35.0625,14.5327,-2.88908,3.08359,-1.59651,-0.208532,0.711901,-41.288,17.2076,37.2684,6
Nordic walking,113.0,32.625,-0.280372,6.36653,5.90298,-0.520576,0.474544,0.390626,38.1746,-23.9126,-46.3378,37.0625,-1.19583,9.49803,-2.48838,0.0461325,-0.0161364,-0.056154,44.3066,-42.2444,7.92934,34.3125,9.91037,-0.133142,-0.762692,0.0480856,-0.0247338,-0.0225208,-51.974,37.2006,-18.2927,1
vacuum cleaning,109.0,33.625,-7.93417,4.68681,2.29165,-0.0646904,-0.0386306,-0.36701,22.4509,-35.2112,-38.9036,36.0,1.48567,9.69841,0.579782,-0.107453,-0.108395,-0.293779,3.21087,-37.1874,-25.72,34.4375,9.59742,0.872084,-2.74021,0.00662436,0.0115676,-0.0333178,-49.2134,38.4393,30.408,4
Nordic walking,115.0,34.875,-1.91824,-0.623203,-0.679311,-0.561173,-0.23853,-0.563779,-26.2877,-28.9953,-16.1394,38.5625,0.979243,9.88563,0.18279,0.219518,-0.292388,0.0264023,-2.90732,-33.9965,-24.6526,34.4375,11.5707,-1.52246,-3.93998,-0.674646,-0.568871,-1.68535,-40.2076,23.6698,20.3867,5
Nordic walking,131.0,34.6875,-3.90368,8.37358,2.3011,0.16907,0.320307,-1.94836,-21.5335,-32.3605,-29.3831,38.5,0.265688,13.025,-3.63499,-0.335634,0.169641,-0.00649057,13.0858,-37.4256,-23.1118,34.3125,24.5597,-12.6164,0.970002,-3.63875,-0.317451,-3.32614,-44.8889,3.04286,19.1177,5
ascending stairs,140.0,35.0,-7.97224,5.21724,2.17383,0.744238,0.367451,2.82776,34.783,-18.0008,-40.7389,37.8125,2.27915,6.77926,-1.95194,-0.350786,0.0856196,-0.0258317,17.0296,-44.1826,9.38499,34.0625,8.85419,3.16755,-4.30566,-0.183576,-0.328344,-0.152804,-44.8963,-5.11586,2.81643,5
transient activities,139.0,30.875,2.77458,-9.02865,-3.04385,-0.0358784,-0.0121829,-0.0365547,15.133,43.0116,-4.32416,34.125,-1.37248,9.44402,0.56755,-0.0898009,-0.0292999,-0.0316237,5.11512,-41.6896,19.0172,31.6875,9.44128,-0.151799,-2.77404,-0.000611929,-0.00554632,0.010616,-43.8027,14.5217,0.81185,8
transient activities,142.0,27.9375,-8.50492,3.50639,1.3249,0.369175,-0.153061,0.23325,38.7843,-4.16835,-6.71059,33.1875,0.67559,9.35129,-1.02132,-0.173367,-0.0962679,0.0537826,2.06821,-23.0015,14.6598,33.875,9.67511,-1.76373,-0.832165,0.0341661,-0.0245619,-0.121811,-31.4077,3.61529,4.69757,6
transient activities,107.0,34.0625,-0.694644,-6.21329,7.44022,-0.0177374,-0.0131311,0.00793829,17.967,4.74626,-28.3758,38.0,-0.2858,9.73739,-0.0719725,0.0380202,0.00588502,-0.0173877,7.93358,-27.9982,22.7662,34.0,6.73621,-7.21528,-0.519755,0.047623,0.0106253,0.0124701,-16.4625,20.0828,-8.45934,8
vacuum cleaning,98.0,34.125,-0.0652493,-4.91432,8.98477,-0.0457146,0.296346,-0.542287,-2.55627,36.1085,-47.4218,37.3125,-0.115572,9.52653,-3.32076,0.119341,-0.472785,0.0878051,13.8316,-49.0895,4.87846,33.0625,9.01146,-1.08387,-4.54779,-0.207584,0.040324,0.10503,-49.9156,12.6647,9.86975,7
transient activities,84.0,34.25,-9.04794,2.91079,2.12701,-0.146681,0.0520853,-0.0309135,42.7227,-0.170709,-23.5405,37.5,0.220753,9.88012,-0.992562,0.0655712,-0.0472108,-0.230936,19.6924,-31.5117,7.92153,33.1875,9.59998,-0.117348,-2.46391,-0.173257,0.303484,-0.0814688,-29.2082,0.405679,1.30506,7
ironing,88.0,34.3125,-3.2588,6.99728,5.93322,-0.248975,0.137359,0.212827,7.66976,-62.5629,-34.1378,37.6875,-1.95442,9.45486,-3.66361,0.152159,-0.0848778,-0.225288,-4.70724,-38.0879,1.18494,35.0625,9.6253,-2.02606,-1.21694,-0.164244,0.0298983,0.181457,-39.1809,11.2035,36.7783,2
Nordic walking,129.0,33.0625,2.04835,7.7547,1.96898,0.46435,0.635788,-0.5982,25.8039,-36.8673,-21.0528,38.375,-0.496518,12.5067,2.858,-0.411601,0.163102,0.228266,7.27206,-37.7695,17.3179,32.5,12.4031,28.0661,-1.33662,-2.4822,-0.471895,3.11207,-41.5167,17.287,16.7019,7
lying,78.0,33.75,6.77351,2.59727,6.40623,-0.014498,0.0381494,0.0154852,7.06464,1.81385,-44.8941,37.125,1.25558,3.57988,8.84306,0.00435361,0.0161424,-0.00342924,30.8899,-3.14873,-27.0336,34.625,-0.445963,-9.42031,-3.97561,-0.00684324,0.0386151,0.0157402,-12.5686,24.1543,-4.39578,2
ascending stairs,138.72727272727272,33.8125,-8.40725,4.61942,2.82362,1.01332,-1.02074,-0.160695,34.2914,-42.5435,-35.4999,36.1875,-0.126169,8.54572,-3.58881,-0.486093,1.92396,-0.183475,3.33535,-55.5645,-23.2322,34.875,8.2604,9.03067,-10.4839,2.81998,2.52904,1.45659,-66.0305,-19.3576,16.496,1
lying,77.0,32.5625,-0.0026384,-2.52243,9.20856,-0.0450736,-0.0153679,0.00500227,39.627,8.7946,-39.4677,34.4375,-0.677724,2.38415,9.27658,-0.0203368,-0.0196243,-0.0186095,41.4438,-0.0344982,-28.485,33.125,2.05813,-9.69542,-0.0892633,-0.0100486,-0.00547086,-0.0122525,-20.1788,19.3586,-11.3082,4
vacuum cleaning,136.0,33.6875,-7.08289,7.01392,0.218235,0.723466,0.609106,-0.159495,22.1898,-32.4587,-11.9912,35.6875,-2.06787,0.991105,-8.01362,-1.03587,0.127335,0.644766,2.04388,-24.1282,38.4473,34.625,8.18712,-1.52276,3.35734,0.900596,-1.05023,-0.196895,-24.4275,-15.3018,41.2023,1
standing,88.0,34.0625,-8.49978,4.7477,0.127681,-0.018753,-0.00717364,0.0122953,22.6111,-25.9187,2.1934,37.4375,0.956331,8.98867,-4.38378,0.0257584,0.0295682,-0.0145341,-9.40995,-24.7898,6.03466,34.75,9.69482,-1.56866,-1.4892,0.0146415,-0.0338132,0.0025137,-19.0654,-16.9682,36.0657,2
transient activities,171.0,33.8125,-8.32222,4.19484,2.09506,3.99164,-0.896176,-1.11715,48.3516,23.4807,-21.8581,36.375,1.55595,8.59678,-0.809318,-0.432404,-0.422724,0.487041,10.372,-37.2625,39.6153,34.0625,5.75646,0.202017,-6.09414,1.49371,1.59301,2.49516,-9.98922,-45.7091,12.6309,5
ironing,94.0,33.9375,-7.21036,0.498435,5.51108,-0.834389,0.343516,-0.510956,39.6478,-49.7878,-50.6609,36.3125,0.22669,9.38351,-2.03631,-0.120567,-0.108522,-0.67035,-4.46026,-40.7897,-10.1014,35.0,9.48485,-0.87633,-2.4218,-0.121569,0.333476,0.0733452,-38.2253,24.4,39.5402,6
lying,99.0,30.6875,6.23799,5.0993,5.697,0.0038778,-0.0111141,0.00661451,-14.3477,15.3069,-58.2752,32.5,1.11341,1.85167,9.34948,-0.00182839,0.0306838,-0.0294561,40.2356,10.3101,-54.3311,31.0625,-0.697798,-7.87918,-6.53467,0.0512269,-0.00836678,-0.00266555,-13.9945,44.5342,-6.64232,1
transient activities,87.0,33.9375,-9.02904,1.87343,0.706761,0.174785,0.0324034,-2.49988,37.6649,-23.3526,-19.9776,36.8125,-1.86518,11.4984,-2.1198,-0.570655,0.0143306,-0.393117,16.1003,-33.2019,24.2626,35.1875,12.8903,-14.4471,-7.70519,-4.01744,0.696421,-2.40306,-10.7574,-40.5608,-0.851823,6
sitting,75.0,33.5,0.172938,9.25961,3.12892,0.021689,-0.0253982,-0.0370651,3.46968,-23.8828,-16.4931,35.875,0.732431,9.66521,0.876012,-0.00557666,-0.0310742,-0.018504,5.12103,-25.4157,-4.19983,34.75,9.58722,-0.87415,-2.76807,0.0276494,-0.0283819,0.0207168,-18.802,-3.5588,11.7,6
ironing,84.0,34.25,-2.40489,9.9017,0.547977,-0.0373748,-0.21012,-0.0262521,-15.7899,-48.8877,-10.1131,37.625,-0.846166,9.26392,-3.52675,-0.0613218,0.061092,-0.00316605,0.537849,-34.7572,-3.38894,35.0,9.69722,-1.53133,-1.41222,0.0207841,-0.030502,0.0269808,-37.1801,12.9938,37.895,2
ironing,100.0,33.25,-1.66103,10.9643,5.44343,2.03144,0.0978053,-0.879203,1.1299,-118.994,-58.9742,35.0625,1.05777,9.44572,-3.57029,-0.105963,0.0961733,0.138679,-21.1267,-60.6296,-3.26229,33.8125,9.89075,-1.57241,-1.17845,-0.0649161,-0.0700211,-0.00197393,-58.1557,-15.2238,41.8503,1
transient activities,119.0,33.8125,6.62704,-5.45863,4.93021,-0.525867,0.00269123,0.117125,-11.7155,1.74104,-25.5416,36.75,0.514137,9.70591,1.22041,-0.0491246,-0.0710183,-0.135906,2.36171,-27.391,8.76458,34.0,9.3416,0.160134,-3.70315,-0.00303947,0.0528632,-0.0053851,-22.9661,-8.09375,18.7822,5
transient activities,141.0,32.0625,-10.2809,1.9576,0.533775,-0.244507,-0.667104,2.25084,-2.06128,-31.245,-13.8992,36.5625,1.2546,11.658,-4.85171,0.0819887,-0.0135753,-0.264967,-4.38427,-33.7061,-2.60416,34.625,14.0666,-0.426205,-0.602483,-0.21137,0.60399,-2.40967,-42.2958,21.4471,29.6101,2
Nordic walking,128.0,30.5,-6.34974,7.32493,1.69069,0.780267,-0.168116,-1.22667,40.6849,-6.37876,-24.8835,35.5,-0.0588724,12.9463,-4.29887,0.662702,0.0221689,-0.199724,16.0129,-23.1916,31.6736,34.1875,14.873,24.6175,0.639593,-0.437983,-1.17396,3.68276,-39.6894,15.0241,7.6114,2
transient activities,127.0,29.0,-4.59711,8.65896,-0.327391,0.484492,0.304027,0.987345,18.5044,-25.5861,-13.6108,33.0,0.235784,9.06702,-4.28093,0.202251,0.00446333,0.126376,8.6649,-22.3035,22.4926,32.1875,9.75382,-0.80398,-2.18795,-0.0471425,-0.123824,-0.0323658,-17.7896,5.06404,9.92541,2
transient activities,115.0,33.5625,-9.21782,2.90726,1.58566,-0.901631,-0.338335,1.53092,68.0465,10.2408,-44.4601,37.125,0.383198,9.03652,-3.15525,0.138292,0.220271,-0.475334,3.02462,-56.4839,29.4703,34.875,10.3116,1.24694,-2.69662,-0.372515,0.0690706,-0.66633,-75.2592,-34.1084,13.5672,1
ascending stairs,162.0,33.9375,-8.94357,2.14044,0.938065,-2.07499,-0.0325177,0.824398,51.5974,5.58014,5.54015,38.0,2.72857,9.09163,-5.01027,1.05918,1.8116,-0.0455353,15.3109,-39.3538,15.4088,33.875,6.6331,-5.42527,-5.7801,4.40344,-1.21639,1.77381,-4.32076,49.32,26.2983,8
ascending stairs,121.0,32.375,2.68523,11.0323,-4.30598,3.44662,-0.688114,-1.67824,18.1529,-46.7968,12.6665,36.9375,-1.28145,7.6636,-6.51095,-0.326578,0.201324,-0.65106,28.3293,-32.3731,37.6093,34.9375,16.0426,3.20801,-5.46706,2.52083,1.00238,-3.28652,1.6148,-28.0871,-4.5739,2
ironing,86.0,32.6875,-4.10598,4.43419,7.0838,-0.409974,-0.599133,-0.695443,2.50886,-22.5597,-32.9531,35.875,-1.24908,8.23539,-5.46675,0.0777879,0.0843166,-0.00219399,4.98089,-34.4675,9.7947,33.625,9.78301,-0.709111,0.127136,-0.045179,0.0398417,0.003047,-34.4379,8.39407,36.3382,3
standing,91.0,34.125,-8.45317,4.86323,0.358914,-0.0140906,-0.0444737,0.0512608,22.1657,-26.2208,2.31097,37.5,0.921847,9.06488,-4.26849,0.0149267,0.0198333,-0.0198667,-10.4339,-24.7577,6.26432,34.8125,9.66019,-1.45516,-1.41308,0.0472777,-0.0491664,-0.0298417,-18.9496,-17.3016,35.9374,2
walking,113.0,31.8125,-11.75165,-0.7705044999999999,3.88859,1.65257,-0.5831115,0.5235745,50.5423,-3.061055,-10.28435,35.75,1.11353,15.9772,-0.996206,-0.265673,-0.302194,0.0514144,-3.71276,-39.9153,-9.39613,33.625,14.6279,-4.08975,10.5784,1.30847,0.325391,-1.69459,-30.7333,34.1402,20.2661,4
cycling,124.0,32.9375,-6.04468,6.35936,8.51078,-0.0220229,0.248662,0.251972,11.0104,-16.7403,-53.1655,38.1875,0.989205,5.8465,-6.85111,-0.57532,0.101228,0.264598,-6.5604,-43.4421,10.3447,32.375,3.29444,1.32403,-2.11304,0.920202,-0.234882,1.59267,-39.8752,-3.08587,33.893,7
transient activities,134.0,32.0,-2.17683,9.53011,-2.60332,-0.0509825,-0.0586919,0.0745523,7.58231,-20.1944,14.1158,36.75,0.0113381,9.96922,0.939402,-0.0544825,-0.192969,-0.00682293,-6.5035,-24.8395,13.0656,34.4375,9.00534,1.73783,-1.36243,-0.424333,-0.23343,-0.49285,-13.9479,-0.765242,31.8644,3
transient activities,86.0,34.8125,-7.52667,0.65852,6.16008,-0.00533262,0.0673947,0.218764,39.0796,-28.2764,-32.5489,38.125,0.214962,10.0005,0.0911283,0.140778,0.0910211,-0.175856,-5.74343,-34.9658,15.3784,34.8125,9.82392,0.18562,-2.54068,0.0298991,0.0139322,0.0329357,-35.7534,26.2231,1.11026,8
descending stairs,120.0,34.125,-15.4624,-3.7992,-2.83433,0.625877,-0.367971,-1.21843,36.9199,-11.4027,-24.6417,38.0,-3.92164,14.0352,-1.04239,0.02754,-2.27991,-0.192265,-0.300512,-26.1282,5.07278,34.0625,12.453,-3.77178,1.17685,0.959381,-0.0768975,1.8865,-33.5404,-8.24072,8.39146,8
transient activities,122.0,34.125,-7.3533,-5.78636,2.68207,0.0320628,0.115529,0.00187932,30.2522,16.6428,-1.04531,38.0,0.138809,9.74605,1.40709,0.0780176,-0.0728135,-0.0488821,3.64114,-24.9942,14.8231,34.0625,9.21876,-0.596599,-3.93125,0.00209514,0.0535013,-0.00457787,-6.84063,33.5292,-1.06582,8
Nordic walking,116.0,30.6875,-4.46905,-8.55181,1.46452,0.618206,0.504612,-2.041,2.97997,34.3303,-37.8423,33.875,0.839785,9.46636,-0.631514,0.117475,0.0730384,0.235177,-6.60205,-40.1913,-13.5038,31.8125,9.86451,-2.1518,-4.60959,0.937289,0.0605533,0.411512,-43.1798,-13.0159,16.022,8
lying,78.0,34.875,0.82566,7.61039,5.95384,-0.000542889,-0.0151716,-0.0161353,-9.12729,7.92671,-33.0645,36.625,0.01301,1.55519,9.52411,0.00743781,0.0235954,-0.0409018,39.0297,5.85765,-28.1122,34.125,-0.345108,-9.07545,-4.43979,0.0335669,0.024826,0.00232569,-13.9165,27.9468,-5.48103,5
lying,72.0,31.4375,6.8885,1.68786,6.64195,-0.0293806,0.0129543,-0.00891924,7.62979,3.41321,-44.8834,33.9375,0.849085,-0.668205,9.66265,0.00939558,-0.0698093,-0.00870014,32.3443,10.2114,-26.9935,31.9375,0.657363,-9.80674,0.668854,-0.00796079,-0.0237671,0.0285438,-15.7639,18.0308,-8.39589,3
transient activities,109.0,32.9375,-5.70796,3.75004,1.32749,-1.36696,-0.826086,0.648428,7.98537,-16.9272,-17.988,35.0,1.41144,6.41647,-0.340197,0.121672,-0.786421,0.175929,1.5272,-17.4076,-12.3076,33.6875,4.1048,-0.551371,-0.896813,1.05816,-1.4059,3.07875,-33.0996,-9.83529,-0.966061,4
transient activities,107.0,34.875,0.171012,8.64097,-6.60633,-1.62218,0.413914,0.172902,11.9421,-17.4883,15.0778,38.4375,-0.348926,10.221,-0.96527,-0.382651,0.156802,0.289083,1.48279,-25.2998,13.2587,34.4375,9.74056,0.0257841,-1.49862,0.239086,-0.23002,-0.0381226,-24.1718,-5.45915,18.6331,5
ironing,82.0,34.75,-4.38446,-7.41275,5.84951,-0.0557028,-0.502578,0.203884,13.2289,17.3962,-47.0778,38.0,2.39808,9.37647,-2.03567,0.0264252,0.0838401,-0.0558464,-16.8766,-35.1792,-4.15645,34.6875,9.64658,0.374079,-2.23495,0.0914603,0.159627,-0.0372202,-35.811,-3.30262,-14.4572,8
transient activities,142.0,32.0625,-8.68373,1.20995,3.17736,0.938203,0.10929,-3.04477,25.9936,-22.3565,-36.2289,36.625,0.428885,6.9973,-3.99965,0.254238,-0.673969,0.666841,16.9469,-36.6448,-3.51025,34.6875,2.28689,-1.49507,-0.176397,1.66498,-1.34063,2.16167,-53.6276,4.28682,-2.66276,2
transient activities,123.0,32.375,-9.05142,2.7963,2.05037,-0.00142583,0.0284056,-0.0423148,16.8693,-23.5529,-28.9621,37.0625,0.506862,8.95426,-4.12077,-0.0643152,0.0178508,0.0222235,3.79107,-35.3474,-11.7983,34.9375,9.76525,-1.14955,-1.72261,0.0547341,-0.0334682,0.016014,-15.0919,49.9584,20.1607,2
Nordic walking,107.0,30.8125,-4.56332,13.3355,0.773473,-0.125276,-0.0521475,1.79596,1.45175,-45.3619,-7.69748,36.0625,-0.265171,14.3619,-1.09338,0.0856994,0.347814,-0.361034,-9.42878,-39.1828,-14.7982,34.75,9.21926,-1.15049,-1.18795,-2.32962,-0.0290987,-0.809468,-39.2534,23.3794,25.3545,6
ascending stairs,108.0,33.375,-6.43818,4.60525,2.96862,-1.17133,0.811875,-0.806066,37.8037,8.25863,-58.3582,36.75,-1.09081,8.71406,-1.43846,0.183337,1.16299,-0.396223,50.4724,-50.4218,-13.8946,35.0625,7.26921,-2.30515,-2.43565,1.23483,0.661507,-2.02091,-31.2017,26.9773,-59.0114,6
ironing,103.0,33.5,-0.785097,9.59465,1.57395,-0.395734,0.261443,0.0770419,13.3165,-50.214,-6.90469,35.5625,2.23573,9.52522,-2.38758,0.0743401,1.36299,0.599984,-20.5277,-35.0473,-1.50352,34.1875,10.6221,0.204391,-0.796077,0.208314,-0.390777,-0.0515272,-41.0299,-0.569572,38.1409,4
ascending stairs,115.0,33.75,-6.73913,6.08374,-1.65936,-1.92759,1.27059,0.407975,45.5859,-6.52178,-13.7966,36.8125,-2.28531,9.58908,-0.688529,0.591761,2.14426,-0.00900351,4.09895,-21.6666,22.9856,35.1875,20.8332,14.0412,-15.3255,7.04315,-0.539701,4.04319,-44.6725,-16.1677,13.4674,6
lying,83.0,31.75,7.17825,1.41727,6.3393,0.014001,-0.0556674,-0.0080611,-2.9862,23.427,-55.5403,33.5625,0.545563,-0.140105,9.65543,0.00812463,-0.0434993,-0.0465518,46.6682,12.9211,-45.6495,32.1875,0.110117,-7.04331,-7.22618,0.0316753,-0.00615055,-0.0121491,-19.7709,44.5426,-0.158487,1
vacuum cleaning,101.0,34.1875,-8.58909,4.19508,-2.33498,0.0782554,-0.19359,-0.226423,54.4462,-4.9937,9.01054,37.4375,2.97215,8.38806,-3.14496,0.0862346,-0.023442,0.117375,-20.6205,-30.7897,0.163713,33.1875,9.22127,-0.749437,-3.81451,-0.02202,-0.161573,-0.0570736,-48.3923,-8.14899,50.1796,7
cycling,131.0,34.0,-4.76821,4.29125,3.26411,-1.1759,-1.07636,0.819155,46.5251,-21.7207,-27.092,37.4375,-0.385458,8.22709,-0.727125,-0.544913,-0.325441,0.281311,10.0477,-40.5948,31.1717,34.125,6.9847,3.70652,0.881417,-0.191503,-0.359376,-0.190927,-22.0076,-38.0258,13.5725,5
walking,111.0,30.8125,-9.73108,6.98719,3.37311,1.22095,0.209104,-0.84358,48.4022,-13.0006,-13.1069,35.5,0.50619,11.8867,0.748529,-0.00617628,0.0984976,0.083972,-0.183451,-40.0423,-12.473,33.375,11.2113,24.1173,-0.398182,-1.70219,-0.623584,0.893637,-27.8504,36.4418,19.9899,4
ironing,88.0,35.3125,-1.48443,5.14693,8.46772,-0.0103924,0.470478,0.851723,5.75718,-6.53054,-50.8546,37.375,-2.32846,9.11899,-3.39825,0.0147501,-0.311543,0.0208913,10.3039,-37.7315,-2.5428,34.4375,9.48567,-0.0993952,0.0817135,-0.0529584,-0.0109616,-0.0581058,-46.51,19.3799,30.7233,5
standing,91.0,34.1875,-8.38828,4.85997,0.0519981,-0.000216326,0.0421231,-0.0309935,22.279,-26.3377,2.42414,37.5,0.544232,9.1045,-4.1593,0.189726,-0.122971,-0.0328909,-8.95062,-25.0332,6.53161,34.875,9.7003,-1.15197,-1.37596,-0.00881185,-0.0222921,0.0128006,-18.8547,-15.66,36.6968,2
transient activities,139.0,32.3125,1.74039,6.62066,6.39424,0.830447,-0.819442,-1.22364,-19.2771,-15.2318,-29.8852,35.625,1.86669,9.50028,-0.690462,-0.0860967,-1.60733,-0.214392,10.8274,-31.5539,-8.77842,33.5,10.1166,-0.0531666,-1.4171,-0.459321,0.343497,-1.02792,-30.3477,2.79582,6.6879,4
transient activities,134.0,30.1875,0.666621,12.5794,1.43167,3.29095,1.397,0.0197979,1.54029,-65.9575,-4.82483,33.625,2.39649,10.505,-2.19425,0.120732,0.881742,-0.0543335,4.0098,-68.7876,15.0045,33.0625,11.0927,-0.734009,-2.48337,1.74098,-0.494745,-0.932311,-58.4215,23.7145,-7.36748,1
vacuum cleaning,89.0,35.25,-5.63197,6.89417,5.05129,-0.285014,0.106288,-0.758776,83.019,28.3162,-44.2671,37.6875,5.23261,5.87379,-6.3484,0.24821,0.330868,-0.0119636,-0.534603,-0.75259,42.4342,34.3125,6.64414,6.82195,-3.77216,0.0470861,0.008792,-0.149035,16.9202,-31.5937,15.404,5
transient activities,112.0,32.4375,4.94307,-6.2953,-0.980761,-5.16272,-0.387942,-0.911133,-14.9252,20.9167,0.201371,37.0625,0.702295,9.50786,-0.130767,-0.105384,-0.0372776,-0.111568,16.9082,-27.0166,0.826423,32.625,9.14479,-0.216118,-3.97296,-0.00955035,-0.0197101,0.0230635,-22.769,12.917,30.6724,8
walking,113.0,33.25,-11.0113,-2.90595,3.34882,0.0562568,0.504252,1.12108,48.6796,-8.18329,-24.4226,37.625,3.84595,11.6472,0.345162,0.100108,0.230872,-0.233995,-4.80771,-39.3544,-13.7781,33.25,18.1177,-14.9592,-0.123441,2.7394,0.924065,2.04473,-26.6376,-31.718,22.3425,8
standing,87.63636363636364,34.625,-8.77572,-3.08293,2.4977,-0.0498104,-0.0231498,-0.00115999,44.9101,1.4521,-20.274,37.625,-0.0700639,9.7425,0.78378,-0.0026797,0.0416421,-0.00757707,-4.92709,-37.3004,-0.677158,34.375,9.09399,-0.668292,-4.35657,0.0333107,0.0160042,0.0116951,-37.5906,-1.84811,12.0574,8
transient activities,137.0,33.875,-8.72846,3.21452,-1.79494,6.06168,-0.932282,1.58681,39.9978,-32.5339,-16.5147,36.375,0.635885,9.61446,-1.10034,-0.0103333,-0.0406336,0.038524,15.3085,-41.7737,-13.3424,34.0625,9.67181,0.149243,-2.61919,0.00612143,0.0171213,0.0242379,-44.572,21.3873,2.07767,5
cycling,127.0,33.0,-1.96731,0.646017,9.63029,0.319242,-0.0273217,-0.144375,45.6132,8.9897,-12.5784,38.25,-0.314906,8.94317,-6.14911,-0.169146,0.0510792,-0.38611,15.4918,8.97843,37.5553,32.4375,13.2259,-0.128378,-3.89307,-0.682575,0.312161,-0.70189,-35.3584,-19.6129,6.8381,7
lying,61.0,30.875,0.443118,4.6019,8.61389,-0.00526993,-0.00653911,-0.033466,-5.88424,16.688,-33.9116,33.5625,0.694948,2.1542,9.34091,0.000684824,-0.0114448,-0.0159411,34.8871,3.95199,-32.7834,30.625,-0.882606,-8.49779,-5.02773,0.0240009,-0.00665258,-0.00902303,-12.4472,30.0576,-7.03847,7
sitting,76.0,34.9375,-0.106502,7.31786,6.36423,-0.0305563,0.0281396,-0.0034308,2.18155,-22.8288,-27.6516,36.875,0.573908,8.96683,3.31483,-0.00698272,-0.0187247,-0.0207951,5.03044,-21.7953,-9.86119,34.125,9.02355,-2.57042,-3.84383,0.0317904,-0.00431245,0.00677418,-34.7784,1.28346,30.0764,5
descending stairs,149.0,31.625,-1.35905,6.28523,8.58122,2.08712,0.654819,1.84684,19.7238,-0.0807381,-30.8249,36.6875,0.141615,9.36162,0.24676,-0.0543626,1.12444,0.241247,19.8363,-22.8066,0.107039,34.4375,12.5238,28.7343,-18.2032,2.40949,0.865849,2.03229,-16.6078,-3.70018,2.02419,3
transient activities,111.0,28.375,-1.70323,8.56774,4.71962,0.15164,-0.14499,-0.119446,3.70461,-26.2814,-11.25,36.5,-0.62177,9.81533,0.154013,-0.0174587,-0.017742,-0.0285987,-0.125629,-21.9044,10.96,34.3125,9.85387,0.850661,-0.306302,0.00256715,0.0398948,0.0149892,-28.1661,-4.71825,26.6161,3
ironing,79.0,32.875,-4.0479,6.18111,7.3097,0.0134589,-0.0668765,-0.199782,0.910012,-43.3598,-58.3879,36.25,-2.93965,7.44732,-5.88203,-0.110494,-0.0988722,-0.0730201,-2.85967,-42.3398,19.4713,33.8125,9.39385,-1.85983,-2.80252,0.0363145,-0.0477086,-0.00780017,-32.7064,23.4929,41.3124,3
ascending stairs,132.0,34.0,-22.3465,-3.18937,-4.32505,3.78601,1.65936,-0.541829,50.4567,13.814,-20.0977,38.0,3.24436,19.3416,-9.13866,-0.772483,0.245911,-0.980627,7.02215,-39.2842,-5.09489,33.9375,-10.2049,6.60399,-10.6968,-2.94618,-1.26566,-4.84173,-36.3984,19.5286,33.879,8
walking,119.0,33.0,-9.04723,8.12879,4.34169,-0.260789,0.514241,-3.59886,-13.4971,-60.6284,-21.3758,37.1875,-0.896411,12.7259,-9.4245,-0.0958749,-0.0209806,0.0319808,-5.9013,-64.8499,-0.585412,34.5625,18.7496,-12.1599,-8.66263,-1.27625,1.72651,-3.08176,-59.1754,-28.289,31.3219,1
Nordic walking,127.0,30.1875,-12.53185,8.40958,5.096780000000001,0.730653,0.0527467,0.2174579999999999,41.355,11.96975,-20.41145,35.125,0.366307,9.11933,-7.60873,-0.126168,-0.33168,0.443248,13.0033,-24.5344,30.6455,34.0,7.67825,4.35358,0.151312,3.90584,-0.726198,-4.15378,-41.8659,3.6006,9.6116,2
descending stairs,124.0,34.125,-7.91033,-1.91654,2.16034,0.332239,0.607285,0.682632,40.6907,-40.2722,-27.3614,38.0,0.478374,7.8539,0.18032,0.127032,-0.471563,-0.240039,-32.8162,-43.5043,9.73935,34.0625,24.2129,-2.86116,-7.77675,-2.42882,-3.06277,-6.52801,-5.10748,4.16596,-62.1553,8
cycling,134.0,27.75,-7.10808,2.39817,5.89107,0.64557,0.350003,0.85473,53.4486,14.8933,-22.9974,33.0625,0.182822,3.5898,-6.85839,-0.14629,0.523173,-0.065973,29.9806,-12.1907,37.4943,32.75,9.05411,1.16389,-0.856702,0.220815,0.0017193,0.768283,-37.3331,-14.6787,-12.3219,4
transient activities,104.0,33.75,-11.1652,3.87246,-2.48795,0.674131,0.110702,-0.937459,24.2719,-36.0835,-18.7663,37.8125,0.57809,8.64309,-5.55114,-0.28404,-0.0931369,0.188744,4.12822,-40.1361,-2.60626,35.125,9.6811,-1.0216,-3.38362,-0.709874,0.263681,-0.763073,-8.43932,24.8621,23.0569,2
vacuum cleaning,101.0,33.25,-6.42242,7.19187,-4.73734,0.316235,0.212334,0.354653,6.13652,-48.5599,-7.58317,36.8125,-1.18563,8.157,-5.89128,-0.0978758,-0.194423,-0.018497,-0.226148,-45.2374,-3.16953,34.125,9.60995,-1.37513,-1.87716,-0.0449096,0.197769,-0.183741,-30.0376,35.4069,17.4046,3
cycling,115.0,29.5625,-1.8234,6.20049,7.189,-0.329749,0.207181,0.0987131,42.5207,-12.0476,-32.3723,34.5,-0.597493,1.37049,-12.4411,-0.359464,0.0865187,-0.341489,10.1257,6.75962,40.4503,33.3125,13.1254,2.11839,0.0280974,-0.536918,-0.619391,1.07005,-40.4838,-7.90092,7.99227,2
ironing,89.0,34.125,-4.33137,4.05755,7.19715,-0.134922,-0.244746,0.0833262,19.4352,-11.3512,-44.029,36.5625,-0.837733,9.57563,-1.97877,0.153514,-0.101345,0.020079,7.66214,-35.8226,-8.07119,35.125,9.79682,-0.588375,-0.722442,-0.0302586,-0.13501,0.0368947,-35.3997,12.8083,42.1165,6
standing,101.0,33.0,3.26917,9.13977,0.943438,-0.0709497,-0.00396243,-0.109444,-34.7342,-53.8047,26.1582,34.5625,0.458263,9.60924,-1.9554,-0.0187731,0.0363845,-0.02933,-33.7901,-54.3187,24.8696,33.375,9.68163,-1.99379,-0.560543,0.0212767,0.0145744,-0.00883113,-96.9552,-28.333,43.7607,1
vacuum cleaning,98.0,35.3125,-6.73715,-6.81069,3.23358,0.473293,3.01832,-1.77457,33.868,-12.8559,-28.8262,37.6875,-4.65511,6.47421,-5.8325,1.75271,0.114815,-0.484235,-0.819642,-18.5257,29.4198,34.3125,9.73108,1.59832,-3.43796,-1.74558,0.127689,0.230203,-7.94453,18.2652,43.0578,5
Nordic walking,123.0,30.3125,-6.50468,-0.856487,-1.09361,0.149045,0.0792968,-2.27142,-0.802892,-27.0464,-24.5154,35.3125,-0.0924721,11.7633,-6.6189,-0.822537,0.230423,-0.365763,5.64124,-30.3373,7.84905,34.0625,18.4651,-7.21296,-5.14601,-1.84826,0.846153,-2.84102,-37.2507,-1.40897,17.4423,2
walking,120.0,33.125,-9.21668,-1.85581,-0.669015,0.531616,-2.09858,-2.64089,35.2076,12.2589,-36.7239,37.5625,-0.204021,4.92167,0.564697,-0.221794,0.242749,0.724617,-5.75031,-36.4822,-13.9419,33.1875,9.53938,-0.756795,-3.15518,1.06522,0.0880307,0.16003,-41.0255,-10.5384,19.4307,8
cycling,112.0,31.3125,-6.86398,-0.392011,8.05943,0.69281,0.123313,-0.107059,40.2485,-7.98321,-27.0314,35.875,2.75295,9.5286,-1.64252,0.210169,0.0101314,0.0262272,-12.4611,-23.8918,22.037,31.9375,6.66277,-4.85163,3.01506,-1.78532,0.207322,-0.2481,-28.1368,18.8731,-4.9532,8
transient activities,109.0,31.1875,-3.83226,-5.39403,7.19803,-0.0170801,0.0371934,-0.0171677,31.3043,26.9946,-24.8632,35.8125,0.533852,9.66399,0.601371,0.0246506,0.00668,0.0170989,16.411,-33.2017,13.2665,31.8125,9.18143,-0.368229,-3.97164,-0.0179439,0.0128259,-0.00028563,-30.1083,17.6352,22.1312,8
transient activities,124.0,28.875,-0.46876,6.24595,9.21048,0.904662,0.322311,0.327451,17.1243,-14.9408,-29.3045,34.25,1.60081,9.13377,0.661146,-0.0422417,0.133196,0.000439989,1.7641,-25.1796,11.709,32.75,9.6712,0.453634,-2.69827,0.00919157,-0.0130851,-0.049297,-26.2897,-0.48762,9.68446,4
ironing,87.0,34.375,-1.53642,2.61598,9.66859,-0.298278,0.0348843,0.737808,-21.5833,-17.2759,-38.9854,37.75,1.57561,9.1018,-4.06316,-0.110292,0.481804,0.229953,-8.84197,-33.2439,-0.219617,35.125,9.39665,-2.17554,-1.33413,0.148284,-0.153561,-0.173135,-37.0305,10.6639,38.4878,2
sitting,85.0,32.9375,-2.53632,5.98008,7.3715,0.0172288,-0.0109434,0.0042876,10.688,-20.7977,-22.8256,35.0625,0.755174,9.60647,-2.22106,0.0363183,0.0370526,-0.0180539,2.64125,-23.7853,4.09291,33.875,9.59857,1.50751,-1.50927,0.00172784,0.0153549,-0.00178562,-5.61346,-5.98626,22.8121,4
transient activities,110.0,33.625,-2.46637,1.83045,5.88554,0.567419,-0.585179,-0.543518,60.7665,-8.19047,1.40566,36.0,0.148929,5.06461,-0.397397,-0.326221,-0.460747,0.0594473,-13.7945,-27.46,28.1112,34.375,11.9475,2.11429,-3.22548,-0.168948,-0.300318,-1.56019,-18.1928,-24.755,37.8238,4
transient activities,88.0,30.9375,-11.5583,3.5979,0.393646,-4.56033,1.01337,-0.732688,34.5787,14.2168,-16.4906,32.875,1.73851,11.7641,-0.0806075,0.139257,0.920332,0.0834164,14.782,-29.4404,10.8083,31.0,10.1808,0.215673,-1.84259,-0.0378576,-0.52699,-1.14762,-53.338,3.52387,4.25834,3
ironing,100.0,33.3125,-1.56814,5.39103,6.00245,1.69668,-0.371218,0.866901,-13.9933,-77.8124,-104.533,35.25,1.08862,8.56093,-6.31604,0.0278449,0.520379,-0.105731,-20.7217,-61.1867,7.28481,34.0625,9.03123,-2.15437,-3.65338,-0.0451188,0.0291175,-0.435824,-44.4151,-2.4746,59.0791,1
transient activities,108.0,32.625,0.963165,8.32538,5.41467,-0.0245905,0.0471515,0.0148084,20.4792,-26.0443,-54.6063,37.0625,-0.265615,9.72446,-1.96889,0.035813,0.00266937,0.0143371,36.8204,-46.9331,-1.87424,34.3125,9.75887,-0.055614,-0.841906,0.0443109,-0.0432174,0.0544943,-52.7348,36.2183,-17.0591,1
cycling,122.0,34.5,-6.04824,1.42529,8.33494,-0.2794,0.20833,-0.0718897,53.4556,-3.61798,-53.1998,38.125,0.300871,8.31164,-4.58706,-0.0979763,0.0778376,0.013516,13.6515,-36.4844,43.0178,34.375,3.8469,3.84351,-4.20685,0.908667,0.192345,1.39813,-25.9848,-39.999,19.3759,5
transient activities,93.0,34.9375,-8.29931,4.85419,3.70965,0.598626,0.529305,0.86659,38.5462,-21.655,-9.2287,36.8125,-0.106963,9.62125,-0.455565,-0.45932,-0.735368,0.323001,-1.55,-30.065,-9.155,34.125,9.51934,-1.85371,-3.65024,-2.15355,0.460882,-0.189974,-28.0908,10.8976,41.719,5
transient activities,123.0,32.0625,3.32693,9.19213,2.59908,-0.337849,0.619608,0.228905,-33.57,-47.8308,-12.0969,36.6875,0.883243,9.60922,-1.7541,-0.053372,-0.0448684,0.00582065,-18.667,-55.9988,-5.42512,34.0,9.74754,0.0891092,0.0446396,0.0159527,-0.0207127,0.0152438,-42.532,-1.41953,15.6287,1
Nordic walking,122.0,29.375,-6.87822,5.51129,2.07376,0.589034,0.371364,-0.982798,38.5293,7.01224,-9.27129,34.75,0.548737,8.22864,-0.0519494,-0.0024077,-0.0763494,-0.218241,6.54838,-18.0214,27.2121,33.0,19.9128,5.08041,-5.24604,1.96224,-0.421205,5.95694,-33.3755,-15.067,10.2438,4
transient activities,93.0,33.0625,-6.31954,7.45468,-0.734002,0.0933553,-0.0299166,-0.00452222,36.7264,-30.7346,0.278754,38.1875,-0.0890665,9.60779,-2.42996,-0.0560043,0.00437098,0.00361553,3.55664,-37.8892,16.3057,32.3125,9.63478,0.225417,-2.62004,0.00899052,-0.0231638,-0.0076419,-58.8897,23.9795,27.6959,7
running,167.0,33.8125,-5.22306,26.2249,7.41691,2.7273,-0.867938,-1.25391,10.9477,-44.6329,-15.0701,36.375,-0.771527,20.1938,-2.01209,0.00882358,-2.35804,0.854694,-5.82593,-41.777,-4.46511,34.0625,4.97836,0.639644,-3.2878,1.46653,0.850136,6.8585,-36.5777,-16.7832,28.9563,5
sitting,86.0,32.3125,1.03233,8.17169,5.26227,-0.0133795,0.0187288,-0.0218934,-39.5224,-13.8148,-49.5054,34.0625,0.80324,9.77664,0.683328,-0.03004,-0.0182389,-0.00872757,11.5244,-62.0253,-43.0969,32.75,8.27903,2.64276,-4.6942,-0.0110289,0.015116,0.00841917,-79.303,23.1945,29.56,1
Nordic walking,125.0,30.25,-6.51642,4.22644,2.96873,0.169612,-0.227358,-2.5451,43.4776,1.2415,-20.7828,35.1875,-0.0276285,4.44878,-2.4508,-0.30013,-0.395343,0.588847,14.9745,-22.7099,31.6585,34.0,3.50341,-0.612188,-2.29183,1.53313,-1.91586,4.16545,-24.4733,-22.84,-6.40881,2
sitting,76.0,35.0,1.98297,6.90268,-8.4592,-0.540684,0.0301493,0.241486,-1.62376,-15.8955,14.9644,36.9375,0.909332,9.11456,3.04938,-0.0195167,-0.0520914,-0.0323865,4.49493,-21.5187,-8.87946,34.1875,9.0845,-2.91977,-2.95347,0.0142637,-0.0191625,0.00343784,-37.8527,6.32028,27.0812,5
transient activities,111.0,34.4375,-7.37728,3.70502,3.30398,-0.33047,0.394567,0.641207,23.4403,-1.50618,-33.7295,38.0,-0.0721805,9.658,-0.571217,-0.272238,0.54128,0.0584345,22.8976,-18.3427,4.34396,33.5625,6.69477,0.488832,-4.73566,2.02622,0.807597,2.70031,-25.3941,-18.2017,-0.929249,5
standing,103.0,32.9375,-8.42336,4.09493,3.55641,-0.0598522,0.0623704,-0.0169135,59.6121,-41.8595,8.65728,34.5,0.80754,9.95701,-0.478809,0.0478296,0.0993979,-0.0185018,-38.6932,-54.8366,13.8851,33.25,9.34686,-2.85617,-1.63913,-0.0185595,0.0187174,0.0155228,-78.2368,-14.7871,54.1495,1
lying,64.0,33.375,4.89685,-0.253452,8.42757,-0.00632746,-0.0093675,0.0157292,14.3144,24.5407,-39.9056,35.5,0.569351,-1.23476,9.27221,0.0137213,0.0314403,-0.0254078,36.9267,16.3808,-27.4816,34.5625,-0.276343,-9.61721,-3.23944,0.0321904,0.00789045,0.00925289,-17.083,26.6877,-5.77438,6
sitting,73.0,34.375,-2.51826,-9.19606,-0.967277,0.0376066,0.243236,0.0796069,9.1077,23.8458,-10.4949,37.625,-0.0466191,9.81432,0.280599,0.00799182,-0.26106,-0.0341866,5.89356,-25.5733,-4.05256,34.0,9.40165,2.79376,-0.786073,-0.273408,0.221863,0.0703234,-22.2725,14.2783,20.4607,8
transient activities,95.0,33.0625,-14.9267,2.95065,1.42302,0.515335,-0.157063,-1.02254,50.191,-4.39249,11.6401,37.625,0.412318,13.2928,2.60086,-0.768232,-0.172668,-0.303897,-17.3673,-32.3523,22.8969,32.0,20.4233,-8.06542,-4.54179,-2.34211,1.07355,-2.3384,17.7018,-41.0727,44.9188,7
sitting,75.0,31.6875,1.67236,-4.92179,-2.99724,0.234867,0.262667,1.73144,3.03422,20.7548,-10.2724,34.5625,0.681087,7.98645,3.16507,0.0972207,-0.0128738,-0.0509281,3.5177,-18.7215,-8.22519,32.5,9.10975,-4.00256,-0.553942,0.0388661,-0.0210268,-0.0114819,-22.8254,-0.561634,14.9815,3
transient activities,82.0,34.125,-8.90179,3.27731,0.819393,1.13087,-0.253673,-0.527964,27.9208,0.515901,6.79991,36.625,2.24431,9.46066,-0.799655,-0.179165,-0.485763,0.0208913,-7.22338,-20.6024,21.4907,35.125,9.50275,-0.604684,-3.1565,0.0253887,0.0479831,0.153767,-2.49326,-29.9433,28.3823,6
vacuum cleaning,95.0,35.4375,-10.9645,1.40491,5.99061,0.825261,0.713624,-0.91435,48.371,-17.0871,-2.7147,37.6875,1.66594,6.05928,-8.46583,-0.0392085,-1.81461,1.09889,-20.5375,-16.2576,36.1789,34.375,13.6807,-0.523842,-2.30377,1.73992,1.10285,0.627423,-31.3375,-36.7165,37.7915,5
transient activities,82.0,30.8125,-1.29683,5.71321,8.31467,-0.828913,0.198541,0.194693,9.66799,-9.27371,-40.6458,32.75,-1.67185,9.53025,2.03324,0.0958455,-0.0772312,-0.0684814,6.19515,-26.025,-13.5879,30.8125,9.81036,0.749283,-1.81111,-0.00609512,-0.0500466,0.0810807,-5.48674,-6.78748,14.0306,3
standing,88.0,33.6875,-7.91631,3.48915,4.14335,-0.0212503,0.0241946,0.0291517,23.5284,-24.7187,-36.2135,36.0625,0.753788,9.81182,0.295108,0.0147408,0.0416637,-0.00695097,-7.46388,-31.2578,-16.3806,34.875,9.60909,-0.272114,-2.11555,0.0194388,0.00983635,-0.0025785,-37.3458,19.9842,41.3922,6
vacuum cleaning,108.0,33.5,-0.956737,9.26937,3.22743,0.435674,0.48127,0.116722,-2.01703,-45.3182,-36.7342,35.5,-1.69304,9.43268,-1.2581,-0.128045,0.515576,-0.124373,5.64638,-56.1052,-9.224,34.375,9.76332,-0.893493,-0.527944,0.0762103,0.0105769,-0.115069,-32.9402,22.7342,-17.9838,1
ascending stairs,160.0,33.75,-4.57522,1.83766,0.619646,-0.784024,0.616645,1.48473,25.9613,-68.9305,-44.6,36.875,0.740445,7.49581,-2.52423,0.366973,0.286223,-0.366554,39.6421,-74.107,26.6925,34.9375,9.52915,1.28893,-2.58914,-0.554469,0.0141184,0.917605,-87.3692,21.0289,-2.332,1
Nordic walking,121.0,30.625,-4.04811,10.2224,1.02262,0.313985,-0.885051,-1.06037,27.9953,-39.3452,-10.3959,35.6875,-0.0216419,10.303,-5.3738,-0.387571,0.308308,-0.223357,-1.72807,-44.0983,12.1315,34.25,15.9823,17.5794,1.50503,-0.728518,-0.813391,1.48207,-22.1355,47.4791,17.8401,2
cycling,132.0,33.0,-6.19188,-5.96774,4.62445,-1.46814,-0.33781,0.318602,12.43,-12.3476,-51.7514,38.25,0.825494,6.35989,-3.40958,-0.583522,0.142015,-0.00431541,-2.38138,-41.0191,12.3341,32.375,9.27272,3.83673,-2.8777,0.45251,-0.671461,1.74331,-39.8646,12.3508,29.762,7
Nordic walking,131.0,30.4375,-12.418,6.00392,5.60693,-2.21007,1.53355,1.67954,35.6201,9.33002,-30.4426,35.4375,1.80202,11.9631,-9.56674,-0.330293,0.605109,-0.287731,12.8308,-20.1965,33.468,34.125,6.7874,-7.73053,-2.56128,-3.75368,0.618321,-0.80872,-39.9152,-7.9339,8.97749,2
transient activities,109.0,32.9375,-7.84659,6.58285,2.24808,-0.00206123,1.41049,-0.321919,9.28864,-23.8194,-14.0119,35.0,0.598364,8.97499,-1.0215,-0.133819,1.04091,0.12598,-7.7715,-15.6459,-12.2413,33.6875,10.1763,-0.0111751,-1.957,-0.497524,-0.144676,-0.280309,-17.6228,16.6154,18.4887,4
transient activities,91.0,34.4375,0.724771,9.79024,-0.674851,-0.00396652,0.018761,0.0032985,-59.1102,-27.8334,28.5389,36.0625,1.51313,5.49521,-8.42804,0.030254,0.00108342,-0.0230418,-16.8394,-31.2092,21.061,33.9375,9.16883,-2.58077,-2.68459,0.0392034,-0.0112055,-0.00429929,-34.6519,27.3284,45.2226,5
ascending stairs,106.05882352941175,33.75,-8.83275,3.74789,-1.64435,0.282041,-0.641917,1.14134,31.5734,-34.6899,-16.0908,36.8125,2.85409,9.00717,-0.748413,0.0679694,1.18044,-0.554733,-15.8583,-31.0784,-15.03,35.1875,10.8871,-0.0643333,-0.637334,0.0525691,-0.113247,-0.711822,-30.7878,17.0794,40.4258,6
walking,121.0,33.0625,-11.134,0.823619,4.48902,-0.298652,0.680568,-2.19853,34.4065,-53.5381,-44.1837,37.1875,0.507241,9.67809,-2.88404,0.267857,-0.708393,0.563726,-8.07022,-67.8173,-34.699,34.625,-0.14353,-5.26157,-2.03025,-0.986897,-0.722861,0.704744,-53.1931,-6.88966,32.3676,1
cycling,136.0,33.8125,-2.64528,11.7472,3.03983,0.274839,-0.466042,-0.884417,10.5362,-35.8066,-24.834,37.0625,1.58584,9.22576,-2.4371,0.569576,-0.208978,-0.0719682,2.37817,-38.2424,25.6058,34.0,9.67493,-0.318671,-1.11126,0.0489483,0.00205356,-0.0222673,-37.9649,24.4491,16.9897,5
ascending stairs,145.0,34.0,-9.24786,-5.73517,2.49957,-0.175135,0.130668,-0.0738706,49.5297,-0.0254822,-5.57639,38.0,-0.513636,8.45271,-6.38344,0.0588092,0.735777,-0.43944,17.241,-36.4396,-2.78387,33.9375,10.1727,-4.48657,-2.54669,0.344363,-0.385854,0.0938209,-40.9116,8.71007,43.5202,8
ironing,75.18181818181819,33.6875,-4.77279,-1.00104,9.6708,-0.997249,0.0569419,1.1614,-2.902,1.00376,-52.9824,36.5625,-0.27775,9.45829,-2.35546,-0.10915,0.252155,0.0605064,0.655555,-37.7618,-3.03277,32.75,9.69391,-1.10139,-2.91992,0.201426,-0.233035,-0.0642453,-31.5398,1.68636,46.8235,7
walking,120.0,32.75,-11.584,-2.97879,3.18654,-0.507185,0.932232,1.65062,49.8302,-2.03918,-23.4123,37.3125,2.01698,12.0005,1.58867,0.375241,0.183069,-0.12988,-1.82483,-38.9469,-15.4517,32.9375,19.1774,-18.2336,4.84721,2.28536,0.659281,1.77165,-25.7045,-32.7899,23.9072,8
lying,75.0,32.8125,5.71965,0.41968,8.05275,-0.0115339,-0.0639899,-0.0504431,17.2686,5.51333,-50.1635,34.8125,-0.366195,1.85786,9.55498,-0.0508664,-0.046989,-0.0428872,40.4592,5.28933,-28.381,33.5,2.54494,-9.44309,1.18762,-0.0272707,0.0147216,-0.00580657,-21.4098,16.1955,-13.2945,4
vacuum cleaning,93.0,33.1875,-10.9095,2.85541,-1.44153,-0.108894,0.358716,-0.694849,18.0182,-37.4266,-13.0385,36.75,-2.92116,5.06326,-7.61639,-0.576804,-0.314246,0.359688,11.5216,-34.4055,15.7778,34.125,8.61241,0.898381,-0.550867,-0.0373641,-0.142239,0.305427,-38.5951,-17.1427,17.7805,3
descending stairs,150.0,33.1875,4.89992,24.2324,5.6509,3.75017,-0.573664,-2.20453,-14.6692,-2.71049,-51.4925,36.6875,-1.91633,13.9302,1.08521,0.270431,-1.57982,-0.686447,24.6137,-28.8762,27.1174,35.0,8.59046,8.91293,3.7212,5.79099,-5.20642,3.03666,-2.39026,-32.0002,-12.4626,6
ascending stairs,128.6,32.5625,-12.8754,7.09496,4.17237,1.40321,-0.319754,-0.580854,61.3078,-0.145347,12.773,35.625,-1.05714,17.5387,-4.99014,0.552358,-0.687355,-0.160919,-11.6486,-36.4493,39.0345,33.5625,0.874673,15.8938,-8.36401,1.53302,0.478931,1.69472,-21.0097,-33.5425,66.3324,4
standing,83.0,32.5,-9.05765,2.72876,2.9742,0.0142056,-0.0555189,0.057123,33.0313,-12.4385,-9.93216,35.625,0.232864,9.85399,0.711464,-0.0457023,0.0214418,0.0453335,-4.19343,-28.6415,-7.25239,33.375,9.7793,-0.355103,-1.38009,0.0120244,-0.0071634,-0.0200877,-6.36271,-3.01751,23.3614,3
descending stairs,99.0,33.875,-6.92714,4.81731,0.805289,-0.96537,0.884642,1.46344,50.326,-20.3884,14.0871,37.875,-0.986171,9.07031,-4.38052,0.0999892,0.144771,-0.337252,-4.53755,-27.2065,20.3244,35.125,14.6503,1.32362,-1.45633,-0.129782,0.406365,-0.327739,-37.0322,-25.0964,31.1748,2
lying,79.0,32.625,4.52215,0.394098,8.38129,-0.000697592,-0.000201058,-0.0189965,20.2012,8.70793,-49.4014,34.5,-0.675986,1.74482,9.39485,0.00204232,0.0140955,-0.0556781,40.5764,5.28426,-27.6752,33.1875,1.81083,-9.63269,1.72152,-0.00751635,-0.00996757,0.0286744,-20.6718,17.0574,-14.1439,4
lying,74.0,33.8125,14.0991,5.49208,1.38738,-0.520014,0.238854,-1.9742,-3.70548,14.881,-39.3064,37.1875,2.11544,4.29708,9.51457,0.765788,-0.283037,0.0952256,29.285,-5.77108,-27.6744,34.6875,-0.469283,-9.46222,-3.47392,0.490323,-0.248432,0.132517,-12.2228,23.0487,-5.15308,2
Nordic walking,113.0,30.25,-6.34408,5.4706,2.23585,-1.30116,1.32341,3.55553,6.45442,-44.8875,-12.3036,35.6875,1.31769,3.25175,-0.641377,0.26491,0.370129,-0.0411848,-7.52171,-37.4475,-14.9358,34.5,9.7456,1.6428,-4.24846,-0.610231,-0.170895,-0.367502,-39.5622,19.66,24.9323,6
standing,79.0,32.625,-2.17613,7.83702,3.214,0.0192155,-0.171144,-0.463779,3.83673,-35.5421,-19.4523,35.75,-0.842451,9.81785,0.421054,-0.0661215,-0.00461217,-0.0680089,2.25861,-27.9515,-8.50192,33.5,9.78656,0.403306,-1.26896,0.0270688,-0.0440911,-0.00463963,-6.13475,-3.57059,22.8585,3
lying,86.0,31.25,3.75813,-3.81081,-8.43496,0.186407,0.00626292,-0.0255357,20.7567,48.768,33.1091,33.0625,8.9803,4.5365,-1.86196,0.034165,0.164543,0.0337103,-40.6863,-7.78041,-41.2417,31.625,-1.53586,2.63629,-10.3517,-0.144034,-0.0953365,0.0235758,-19.3337,20.8164,41.1745,1
walking,120.0,30.6875,-13.9307,-0.320337,1.41049,-0.0782753,-3.97807,1.96063,52.8812,9.44171,-32.375,37.0625,-1.0898,5.78784,0.158625,0.297647,0.606408,-0.0448198,16.7111,-51.8055,-6.59875,34.625,9.31831,-0.729052,-1.7298,-0.444493,-0.129067,-0.666802,-49.724,7.63245,0.93058,3
sitting,85.0,32.9375,-2.46742,5.78846,7.21923,-0.0654825,0.0556684,0.0162205,9.57539,-20.7388,-23.6111,35.0625,0.732127,9.68526,-1.71836,0.0264781,0.0821814,-0.0550425,2.50851,-23.5225,4.0905,33.875,9.72704,1.65417,-0.968612,0.00376313,0.0518795,0.000925484,-6.74007,-7.08919,22.6676,4
walking,121.0,31.5,-10.4691,7.73659,5.89969,3.31214,2.41824,-1.03825,36.3779,8.75554,-31.499,36.375,-0.00450354,5.97938,-4.39141,0.101596,-0.682862,0.959574,18.0277,-25.1352,29.1274,34.4375,1.23961,-2.21112,-0.0283354,0.899402,-1.25126,3.31295,-22.6404,-20.63,-11.5989,2
ironing,103.0,33.375,-5.15188,4.90966,8.41358,-2.11729,0.885132,0.890235,-22.1696,-56.7286,-82.4549,35.3125,-0.000981413,9.18755,-3.27886,-0.191182,-0.0429596,0.0515237,-14.7631,-60.4875,-5.37194,34.125,9.52074,-2.01691,-2.25999,-0.0256798,0.0374467,-0.00322605,-51.7442,-3.22748,52.0757,1
ironing,87.0,34.75,-9.73089,-0.974513,8.28787,0.724668,-0.660919,-0.0901795,11.0811,8.4443,-58.0427,37.9375,-0.0894416,9.74948,-3.74694,-0.124826,0.184655,-0.102539,-6.94567,-40.3214,-0.392042,34.6875,9.38437,1.18505,-3.70907,0.0487779,0.00363919,-0.097088,-42.8324,-20.8116,-2.12222,8
transient activities,92.0,33.5625,-9.90098,3.06326,1.45943,0.179626,-0.0216188,-0.00145643,43.8096,-41.0064,5.14413,37.75,2.53489,8.49818,-3.77277,-0.0793924,0.137468,0.0244547,-23.7143,-42.6947,0.0322711,35.125,9.58192,-0.834575,-2.96131,0.0010693,0.0435425,0.0449536,-38.7502,23.8302,57.0854,2
transient activities,123.0,33.6875,-5.58047,5.01105,-1.79233,5.49524,-2.74981,0.554788,17.6007,-87.8932,32.5535,36.0,-0.624386,-4.02817,-8.9779,-0.715825,-0.205939,0.309303,18.7928,15.429,42.1948,34.4375,9.97869,2.42675,-2.78454,-0.0103896,0.599951,0.486548,-28.798,-23.2942,4.59614,4
Nordic walking,78.0,33.125,2.14436,6.80266,1.66573,-0.201418,-0.822459,-0.618875,-1.57154,-45.4554,-17.5332,38.3125,0.901819,9.43403,0.182855,-0.0515733,0.410482,0.0963868,0.110534,-40.471,16.8604,32.3125,9.43143,2.39884,-3.60036,-0.623775,0.580146,-1.59567,-12.6721,-22.9246,9.75839,7
standing,91.4,33.6875,-9.86931,2.56054,4.65606,-1.03953,-0.234187,-0.105294,23.7523,-22.7453,-36.4884,36.0625,0.263124,10.3413,0.400661,0.193164,0.126569,-0.148996,-7.4743,-31.6453,-15.3914,34.875,9.69204,-0.198899,-1.84503,-0.031274,0.0663982,0.0947103,-37.9439,12.8085,42.8167,6
vacuum cleaning,100.27272727272728,35.25,-6.00134,4.56092,6.86254,-0.0998861,-0.0691291,0.9309,28.6856,10.99,-42.3459,37.6875,-0.492805,3.35101,-9.07694,-0.197914,0.144457,-0.142602,28.4679,-14.19,29.5989,34.3125,9.21011,-2.06045,-1.33676,0.0925233,-0.641656,-0.465384,-23.4802,10.5337,-3.65066,5
ascending stairs,124.0,31.875,-12.8814,4.43997,-4.17053,-3.23726,0.60257,4.69185,32.8387,9.59528,-30.0607,36.75,1.22469,4.97045,-2.66214,0.837072,2.12923,-0.910454,4.2675,-19.805,21.9389,34.4375,10.2441,-3.06239,-0.316606,-0.0275717,-0.435163,-0.97343,-31.5749,-15.9182,14.8893,3
Nordic walking,127.0,30.5625,-7.46773,7.72612,3.13511,-0.487497,-0.86334,4.06461,16.5903,-25.2464,-31.4074,35.5625,-1.68859,6.20005,-5.97147,-0.545731,0.442336,-0.149859,12.46,-25.3703,14.0881,34.25,9.53978,-0.680858,-3.15565,-1.22773,0.466636,-0.624678,-34.1175,15.4559,18.5867,2
Nordic walking,144.0,32.1875,-3.12023,12.7312,6.57023,3.02717,-0.141961,-0.600699,46.8092,-46.0466,-5.70731,36.8125,0.388199,9.34746,-1.7235,0.42153,-0.471708,0.415184,-21.7312,-47.7923,36.9514,34.0625,15.7429,-0.244462,-0.895136,0.140604,-1.20837,5.53514,-53.5213,-37.5138,21.2749,1
transient activities,103.0,31.25,-4.34554,-5.42386,7.65229,0.0960939,0.136071,0.248209,30.9426,27.3849,-26.8333,35.8125,1.05206,10.1769,-1.24951,0.169617,-0.0471636,0.0878064,15.8689,-29.7062,19.447,31.875,8.9873,-0.441054,-4.20472,0.0840616,-0.0686501,-0.0551352,-30.3544,17.65,22.9813,8
sitting,76.0,34.375,-1.99168,-9.8727,0.197515,-0.0619091,0.0295701,-0.0522588,8.23023,25.1328,-11.682,37.625,-0.0955491,9.33154,1.24931,0.0217486,0.0123513,-0.0149093,7.30931,-25.2384,-4.32662,34.0,9.24236,2.65609,-2.40761,0.00719056,-0.000272239,-0.00113005,-18.9476,16.4441,25.2922,8
cycling,137.0,29.125,-12.654,0.511865,6.46865,-0.622176,0.492157,-0.952938,20.5901,-3.10038,-46.9685,34.9375,-0.931467,6.96924,-8.78688,0.460235,0.0473536,-0.692462,-1.69966,-38.0891,22.8975,34.1875,9.25001,5.39175,-2.65605,0.0128708,0.243626,-1.88546,-45.3855,3.71888,21.6681,6
ironing,89.0,34.75,-3.13707,-6.67462,4.63411,-0.670576,0.172408,0.566923,18.6945,-9.45274,-47.7135,38.0625,0.784357,9.10637,-3.76774,0.0465379,0.282616,0.172815,-19.9689,-37.4052,13.6012,34.75,9.39804,0.00224023,-3.00698,0.0975119,0.356573,-0.133825,-43.5191,-14.998,-6.95367,8
standing,87.0,32.375,1.46634,9.32758,3.37899,0.356595,-1.18714,3.85461,-11.5384,-28.6264,-13.9939,35.5,0.678332,9.82098,1.61022,-0.110096,-0.134473,-0.0237628,-3.67,-26.8431,-10.3065,33.3125,9.75156,0.0225718,-1.11259,-0.0772975,0.0185791,0.0326971,-6.35197,-3.57431,23.7267,3
sitting,78.0,31.625,-0.655671,9.02972,2.1551,-0.226341,-0.708018,-0.247843,3.54976,-26.3175,-24.6731,34.375,-0.931931,9.71095,1.27164,0.13264,-0.295789,-0.0453877,7.25318,-24.2939,-11.2405,32.375,8.90806,0.175081,-0.543346,-0.283445,-0.0876681,0.0445497,-7.6079,-1.98416,23.6302,3
ironing,86.0,32.6875,-7.41001,7.41686,-1.67391,0.0833586,0.464124,0.864441,9.76959,-36.3704,9.75018,35.9375,0.209215,9.83988,-1.37985,-0.371496,0.375733,0.21986,-1.26096,-31.4261,-6.72134,33.625,9.79204,-0.652343,-2.1885,0.196932,-0.27348,0.00862323,-30.0881,19.4556,39.2675,3
transient activities,99.0,33.9375,-9.25665,1.43027,1.85947,0.00474173,0.0779875,-0.127536,43.4042,6.1302,-11.2443,36.75,-0.576075,9.50712,-0.850902,-0.134714,0.0911197,-0.0658855,13.9705,-38.0167,17.3659,35.1875,9.03458,1.43577,-1.59179,-0.616946,-0.173132,0.266588,-32.014,-3.2081,-5.50856,6
standing,112.0,32.8125,0.628256,9.53024,-0.136597,-0.0208645,-0.591569,0.079469,-16.9224,-60.5585,30.9735,34.4375,0.927276,9.68571,-1.55994,-0.0759373,-0.317256,0.0464002,-40.3219,-53.6623,13.6168,33.1875,9.63723,-0.573851,-2.38352,-0.060189,0.182599,0.287932,-63.6364,-17.5717,67.3685,1
Nordic walking,121.0,30.6875,-2.68664,-10.4002,4.23006,-1.01896,-0.518186,0.313632,7.17714,35.1005,-35.7558,33.8125,0.685218,10.1148,0.525206,0.147233,-0.254363,-0.339264,-4.93014,-40.3822,-13.2091,31.8125,22.2016,-39.4492,-3.1711,-1.09295,-1.99839,-4.56486,-27.2953,-33.8914,16.3858,8
transient activities,166.0,30.875,-7.90875,-5.98803,0.865525,0.0195064,0.0281607,0.025634,40.4919,38.1778,-12.3514,34.1875,0.00723279,9.99716,-0.493439,0.357717,-0.0428895,-0.0414198,14.8481,-46.6752,3.46179,31.8125,9.84956,-0.392261,-1.5335,-0.0601463,-0.000410209,-0.0107614,-60.1813,17.7644,37.485,8
transient activities,97.0,32.6875,3.68496,4.94866,-9.0814,-0.981893,0.237762,0.318466,-29.6425,-3.6573,29.9966,37.25,0.536971,8.95233,-4.39126,0.0522037,-0.0294262,0.0554811,-12.5199,-47.3987,-2.99125,35.0,9.62507,-1.64573,-1.29649,0.0472534,-0.0318639,0.0616982,-46.1878,27.6769,44.5618,2
walking,120.0,33.1875,-13.1191,3.47626,6.60563,-0.756496,1.79218,-4.87095,37.8789,-20.5365,-11.348,37.25,-2.40294,11.2094,-6.11686,-0.327529,-0.481517,0.313169,-6.15099,-43.8714,27.8772,34.6875,15.6433,-4.7251,-10.0913,-0.572045,1.56321,-2.8656,-20.3374,-20.9511,-18.5528,1
walking,109.0,34.5,-8.84552,1.53953,1.71131,-0.155589,-0.567893,1.70371,47.0322,-14.6728,-24.9048,38.125,1.01052,10.0432,1.22831,-0.0400962,-0.440378,-0.290671,10.1533,-40.3338,24.5438,34.0625,11.8583,-1.68371,-3.00988,-0.822675,-0.436771,-1.61124,-36.7989,-17.8331,18.4612,5
walking,119.0,30.75,-13.6672,8.1241,4.00309,-4.96129,4.60077,-6.15628,33.5534,-19.7575,-27.0291,37.0625,0.287388,4.24184,0.498368,0.0356712,0.132556,0.276656,4.50652,-32.4314,-15.5834,34.625,9.74078,-1.82688,-2.45186,0.769882,2.47673,5.37521,-41.9807,5.33392,12.3542,3
sitting,77.0,34.9375,-0.129567,6.5644,6.94373,0.0261112,0.0108862,0.00176592,2.79447,-20.7535,-30.0276,36.875,0.60618,9.63399,1.76441,0.0165306,-0.0615397,-0.0110601,5.24725,-23.8714,-5.47676,34.125,8.99083,-2.72367,-3.65026,-0.00454527,0.00509586,0.00519131,-35.8299,2.88167,30.3545,5
walking,121.0,30.4375,-10.754,9.58072,8.19845,2.6661,-0.178158,0.849028,38.3076,14.2982,2.67856,37.0,-1.77854,13.0031,3.25909,0.125767,-0.279665,0.415595,12.011,-38.0835,12.9609,34.625,15.7584,9.93613,-6.20634,-0.377244,-1.26876,-2.97515,-34.321,6.58952,5.37329,3
Nordic walking,124.0,30.75,-0.515028,-4.74129,2.51156,0.516449,0.0485782,-0.276388,-3.11633,27.952,-41.4658,33.8125,-0.864348,5.86166,0.0463067,0.153749,0.572766,0.0128555,-9.63561,-39.5674,-9.72133,31.75,9.17259,-1.85937,-2.68902,0.308052,0.407554,0.788074,-45.2354,-5.95911,16.7158,8
transient activities,92.0,34.625,-10.3225,2.61053,1.37767,-0.859083,0.340293,-0.371002,23.9615,-17.5301,-21.5718,38.1875,-2.25037,7.94386,-4.51592,0.238267,1.02703,-0.328253,8.91455,-28.479,0.423974,35.4375,10.5161,3.0826,0.188302,-1.40527,-0.573536,1.64954,-0.104502,33.7104,15.7801,2
rope jumping,148.0,30.8125,0.939599,-11.2544,-3.21778,-3.71612,-0.320521,-3.63751,48.6908,14.5301,-18.13,34.125,-1.17434,-5.85923,-1.62493,-0.0349034,-0.481411,0.0229679,18.3357,-42.0351,6.27979,31.6875,4.20632,0.993491,-4.18547,0.805266,-0.675942,-2.22206,-31.206,30.842,28.92,8
ironing,83.0,33.375,-2.28086,7.6788,2.40473,-0.18915,-0.739273,-0.552524,-2.11135,-27.5629,-26.6956,36.125,-0.229521,8.81199,-3.24306,-0.0609015,-0.540835,0.38345,3.85964,-37.8811,-2.02277,32.5625,9.74663,-0.915958,-2.41886,0.272912,-0.650291,-0.159348,-35.548,10.1255,46.6578,7
transient activities,118.0,32.5,-7.12327,5.64895,-3.9344,-0.0376223,0.0223813,-0.055516,9.72602,-35.738,12.5684,35.1875,0.215608,9.81245,0.130472,-0.0143433,-0.00729867,-0.0192411,-13.5091,-28.8477,-11.2192,33.3125,9.51183,2.60353,-0.822352,-0.0155555,0.00494809,0.0287931,-23.3639,28.5223,29.8013,4
vacuum cleaning,91.0,34.0625,-9.09163,4.34019,4.93111,0.391911,-0.516376,0.0856161,29.7245,-17.7139,-15.7963,37.1875,-2.20446,6.27224,-6.67803,0.153572,-0.0582775,0.105624,9.0684,-18.2471,30.756,33.0,9.35788,-1.37636,-1.53243,-0.0409303,-0.0449993,0.058192,-0.336321,11.1987,2.10327,7
descending stairs,169.0,33.875,-13.9908,-2.60776,0.14722,-0.17161,0.389048,0.492696,41.4615,43.7063,-18.4235,37.9375,10.2836,17.2533,-2.77027,-0.609395,-1.12176,0.0425372,22.6902,-34.8146,-22.3548,33.875,35.4609,-29.8942,-7.10774,-4.49048,-0.388318,-5.36141,-36.0021,-6.66089,65.823,8
ironing,89.0,34.0,-3.49662,12.2605,4.52635,-0.332136,0.0287949,-0.86885,8.18256,-44.111,-12.1806,36.375,2.69424,9.52406,-2.34055,-0.314829,-1.15002,0.0501453,-4.79767,-37.6842,-8.14731,35.0625,9.27311,-0.944015,-3.27252,-0.440311,0.270887,0.139665,-27.1681,22.9616,44.403,6
vacuum cleaning,102.0,35.25,5.23203,-9.11088,6.846,0.214451,-1.04646,0.412124,12.6592,-8.38145,-41.0149,37.6875,-1.77057,9.07644,-3.85265,-0.0490097,-0.0183963,0.446253,-0.543973,-30.3865,15.9526,34.3125,9.591,-0.571044,-2.69273,-0.0108795,-0.0386517,0.0677834,-0.281861,14.2838,1.39072,5
transient activities,103.0,34.3125,-10.3526,-4.88718,-1.21463,1.57056,0.22807,-0.354591,40.4216,27.5267,13.4348,37.4375,-2.25607,11.1386,0.158825,0.256134,-1.28586,0.712538,26.1882,-39.4934,11.8192,33.8125,13.2538,1.41187,-1.89568,-0.535592,1.8182,0.634445,-22.2323,49.9122,11.4841,8
ascending stairs,107.0,34.125,-7.77462,3.73117,1.64298,-1.26262,0.555037,-0.421983,70.7853,13.3641,1.64835,37.625,0.0474321,9.05675,-0.33477,0.338123,1.59742,0.10658,-0.566487,-54.5191,31.8819,33.0,12.1835,3.73272,-10.9896,4.87684,-0.300469,4.96296,-32.0786,-41.2388,19.7814,7
transient activities,131.0,33.1875,-10.2072,5.23312,1.98635,1.15475,-0.473532,-1.22997,35.166,-31.6475,-4.8306,37.6875,-0.754593,9.16302,-1.70488,-0.0137261,-0.663222,0.0855857,-16.0057,-26.5724,-2.50721,32.0625,0.926415,6.18671,-9.96259,1.20182,-0.0830659,-3.06622,-26.5392,-39.9144,38.6631,7
transient activities,129.0,28.375,-6.604,2.3304,3.0123,-0.763254,-0.0258418,-0.216122,44.2832,12.4045,-22.5701,33.9375,-0.923582,9.54481,-1.0122,-0.0170952,0.0235339,-0.455864,27.227,-34.7466,-0.890948,33.9375,12.3019,-0.440738,-2.12548,-0.772438,0.445917,-1.71863,-30.8291,-16.3958,-4.35443,6
Nordic walking,129.0,34.625,-0.0899907,-0.434476,0.809958,-0.321462,0.231777,2.20532,25.9618,-37.0024,-24.858,38.375,-0.363031,2.72932,-0.74757,-0.0983724,0.210262,-0.281337,15.7409,-38.2132,19.4944,34.25,5.9766,-3.62213,-2.90381,-0.780686,-0.314801,-0.552056,-41.3179,-17.1028,15.0405,5
sitting,79.0,35.0,1.33272,9.61658,1.64408,1.10892,-0.13034,-0.109813,-1.97494,-28.1808,-12.2566,36.9375,0.667716,9.41339,2.57938,-0.0171921,-0.053838,0.00694465,4.75946,-23.2062,-7.74,34.1875,8.90958,-2.6833,-3.88288,0.0378949,-0.0257416,-0.000500361,-35.9538,2.62994,30.2125,5
cycling,134.0,34.125,0.0944375,0.416879,7.0448,0.57754,-0.185048,0.453865,1.12038,-25.3901,-45.2191,37.625,0.578908,7.37258,-4.11432,-0.152928,0.259742,-0.021393,-11.1308,-44.3018,7.21567,34.1875,8.00991,6.12355,-2.98203,0.672871,0.252627,1.3839,-38.0489,20.874,25.6453,5
walking,96.0,31.5,-10.8339,3.93482,0.518822,-1.75305,-0.884808,2.26589,40.7032,-2.67374,-30.6078,36.375,1.66276,8.62359,-2.35631,0.0464989,0.433496,0.171846,20.1684,-38.7281,-14.1719,34.8125,9.87118,-3.84828,-1.43465,-2.58711,0.101491,-0.571024,-45.2799,18.5898,1.93659,6
ironing,85.0,32.75,-3.13936,9.77116,2.26935,0.367267,-0.504223,0.0271948,2.56802,-37.879,-26.6381,35.9375,-0.427295,9.84449,-1.00419,-0.0384665,-0.0625045,0.128662,4.89853,-31.9487,-8.71242,33.625,9.75981,-0.501516,-2.03541,0.0981353,-0.116071,0.0342593,-31.3021,23.7453,35.1147,3
transient activities,81.0,34.125,5.00908,3.19177,7.68637,0.00453139,-0.0117062,0.0149599,-4.59483,7.30838,-39.1066,36.625,0.75702,9.73729,0.411572,-0.0355799,0.105808,-0.0195977,24.3206,-28.9639,-1.79003,35.125,9.75347,0.18481,-2.38704,0.00857617,-0.0100829,-0.00200615,-29.0849,29.4887,-1.13939,6
transient activities,108.0,34.3125,-7.81738,3.71188,3.68224,-1.28285,0.57573,-0.236912,39.8782,-34.1595,-44.1945,38.0,0.0821989,10.5322,0.70653,0.181377,0.466285,0.0109306,19.1801,-47.9671,-23.7146,33.5,11.3211,14.5774,-3.92668,1.29042,-0.511403,1.59341,-36.2929,55.5917,-3.03884,5
ironing,84.0,34.0,-5.48888,0.926698,8.22953,-2.2225,0.511459,0.931947,18.1968,-12.4012,-42.839,36.375,-2.59566,8.9692,-3.4026,0.0437325,-0.171104,0.151798,7.12629,-36.716,1.80046,35.0625,9.79242,-0.58709,-0.876853,-0.0780559,-0.0027944,0.00886254,-32.6954,5.46292,41.8509,6
walking,104.0,32.8125,-5.67638,2.73541,2.44752,1.99084,0.37004,-1.1375,44.344,-23.4583,-16.0536,37.625,0.121304,4.27686,0.0305938,0.106575,-0.047962,0.323647,-4.83472,-38.1933,-13.2208,32.0,3.85402,-3.45963,-2.57928,1.30619,-2.41851,4.05379,-38.3298,-12.4476,28.8033,7
ironing,84.0,32.9375,-3.71876,5.9485,7.046,1.16378,-1.55102,-2.41859,3.56257,-35.0573,-39.0021,36.3125,-0.466136,9.42175,-2.28131,-0.127893,-0.209634,0.136431,-1.62076,-34.0969,-6.60783,33.875,9.71706,-0.472389,-0.916928,-0.136518,0.281682,-0.0965436,-34.0645,20.327,33.9868,3
running,164.0,33.8125,-15.1283,13.4041,7.61969,-0.553661,0.430677,4.35703,0.701038,-38.6378,-32.9333,36.4375,4.32257,18.3397,-0.907027,-0.803576,2.2236,-0.574209,-10.1512,-39.6775,-9.58328,34.0625,23.3233,3.0254,-7.28215,-0.958224,0.122338,-1.67568,-41.7949,7.68688,30.8952,5
Nordic walking,132.0,30.4375,-5.38515,4.63368,2.83035,0.702148,0.170271,-2.26795,40.5544,-9.52356,-25.1474,35.4375,0.806417,4.48278,-2.59069,-0.188551,-0.116461,0.420374,16.8102,-23.0976,30.7052,34.1875,3.8686,-1.29639,-2.47678,1.78438,-1.72001,4.31368,-24.6267,-21.1507,-8.61755,2
walking,112.0,30.1875,-9.14044,2.46243,2.81991,0.285857,-0.0179134,0.00422861,35.3217,0.725377,-16.7069,35.3125,1.48702,9.77398,0.618282,0.00853559,-0.0693784,0.0422624,2.35335,-26.2294,8.19391,33.125,9.55432,0.417661,-2.8536,0.0126625,0.00946485,0.0147304,-28.9527,6.60787,13.2127,4
walking,95.0,31.8125,-6.70723,2.45599,0.00831386,-0.911247,-1.22381,2.65199,32.6127,-29.0469,-30.6939,36.5,0.430599,9.96791,0.947002,-0.182642,0.00426852,-0.176325,6.3341,-42.8926,16.4945,34.875,11.7298,-1.84106,-2.23843,-0.328954,0.372647,-1.33846,-36.4512,-17.2469,4.84586,6
cycling,119.0,29.875,-6.77496,5.37714,8.34921,0.214561,-0.228995,-0.0528169,22.9482,-21.867,-26.699,34.8125,-1.04685,2.10623,-9.66375,0.223266,0.178516,0.568159,-5.71432,-5.82063,32.1029,33.75,9.15313,3.47596,-0.445549,0.362677,-0.320631,-0.184379,-27.7886,-17.054,24.0058,2
running,167.0,33.8125,9.59284,4.71939,0.129376,3.19509,-1.40973,-1.18591,24.4628,-36.426,-24.8584,36.375,2.27903,-3.35221,-2.30622,-0.401721,-0.423035,0.641345,-5.26039,-40.5038,-8.69854,34.0625,13.0915,36.068,-19.362,2.84926,0.558904,4.27326,-33.3998,34.8905,11.3204,5
standing,91.0,34.6875,-8.70808,-2.38425,4.30526,0.60752,0.166789,-0.113454,44.211,0.122042,-23.6765,37.6875,-0.216604,9.81958,0.974479,0.054235,0.0680655,-0.0796927,-3.50152,-37.6106,-0.947487,34.5,9.01022,-0.475083,-4.70594,0.0271669,-0.0155335,0.00586904,-37.5898,-2.10689,11.6322,8
transient activities,108.0,34.875,0.598484,7.65604,-6.05778,-0.0188557,0.0769216,-0.000867614,5.51279,-19.2554,14.0517,38.4375,0.221797,9.84273,-0.953701,0.0517168,0.108128,-0.00599178,-1.28454,-26.3553,10.2844,34.4375,9.76839,-0.123758,-1.80613,0.0098782,-0.0237913,0.0112603,-24.4386,-4.54254,19.3403,5
vacuum cleaning,85.0,34.75,-7.15535,-6.9034,0.99536,0.129071,0.357577,-0.256431,25.0461,47.6916,-8.57205,38.1875,2.88326,9.9458,-1.13814,-0.826622,-0.926471,-0.121815,17.5135,-43.5488,2.89856,34.75,14.3418,-3.15895,-0.930007,-1.52481,-0.100204,1.59537,-32.0363,11.1591,20.0045,8
walking,114.0,34.625,-9.18591,3.768,4.50827,-0.998968,0.335466,-2.40516,34.581,-34.6044,-19.247,38.25,-1.35275,12.9972,-2.96725,0.151098,-0.137748,-0.347058,-4.14402,-38.2158,-16.036,34.1875,12.3987,5.0923,-10.2626,2.42758,-1.37496,-3.76438,-37.0929,-15.0754,31.7892,5
walking,121.0,30.375,-8.75941,-0.239622,-1.97619,2.31884,-1.4097,2.90877,40.6342,-48.2833,-23.9458,37.0,1.36697,14.1006,0.0212298,-0.420105,0.247807,-0.406475,-0.365429,-51.5716,17.9032,34.625,25.7298,-9.25296,2.00305,-1.78188,-0.560365,-3.69062,-27.5461,-37.2577,32.8242,3
transient activities,130.0,32.9375,-4.44919,16.2803,3.45936,1.76057,-1.53721,-1.64077,22.8482,-38.9532,-35.7321,36.625,0.244998,11.1187,-1.57696,-0.165925,-0.373087,-0.546676,26.8033,-37.1861,3.63209,34.9375,12.5508,1.06108,-0.241361,-1.20005,0.414965,-1.35926,-29.8035,-21.9449,8.56233,6
transient activities,108.0,34.4375,-9.14251,3.05809,1.54779,0.00597241,0.0594208,0.0156036,34.1303,-19.9367,-18.9413,38.0625,2.58391,9.45881,-0.909659,0.208408,0.0395327,-0.0729496,1.41956,-33.5306,-6.43558,33.75,9.42649,-0.451693,-3.23541,-0.00961197,0.00757955,-0.00661481,-29.0211,17.5642,16.4618,5
walking,118.0,29.5625,-12.9874,-0.0519139,6.77346,2.66296,2.17079,-1.10402,44.2284,-6.34786,-9.4161,36.875,0.116436,10.7946,0.551413,0.278898,0.21876,-0.0529592,-4.82263,-32.7267,-10.3319,34.5,23.5834,16.2028,-12.4551,1.72758,0.839835,5.07486,-27.43,30.7406,12.8775,3
transient activities,143.0,31.5625,-0.802685,8.38567,-6.31215,0.0391428,0.820113,0.0431002,20.747,-5.27911,21.8796,36.6875,1.33928,9.39921,0.810429,-0.250494,0.276718,0.118662,3.97428,-27.3868,21.1887,34.4375,9.67675,-0.384566,-2.3457,0.027046,0.0433887,-0.0999234,-17.6905,-10.6638,22.7536,3
ironing,88.0,35.4375,-3.89272,1.49456,9.48312,1.01661,-0.748363,-2.42134,-4.74719,8.05245,-51.8403,37.5625,-0.830771,9.61484,-1.74645,-0.190332,-0.0226241,0.231493,7.11369,-40.7018,-9.31634,34.5,9.34781,0.0822693,-3.47107,0.0207026,0.231892,-0.26281,-42.9881,29.5135,33.986,5
walking,124.0,32.9375,-4.11205,2.20554,-0.259867,0.422726,-0.418433,3.3689,64.1442,-41.0782,-38.7192,37.1875,0.880583,3.85111,-1.3095,-0.405929,0.824052,-0.43441,13.599,-72.0312,41.3773,34.5,9.59026,-0.0871733,-1.49946,-0.734302,0.188069,-0.134443,-72.7323,-26.3454,-21.5238,1
transient activities,117.0,30.6875,1.88092,9.74925,-0.00310967,-0.0319676,0.0501801,0.00812504,-11.8501,-39.754,-10.4069,35.6875,1.58498,8.60597,-4.99068,-0.0250516,-0.0498481,-0.0237429,-0.815796,-38.5789,16.1978,34.25,9.61288,-1.87033,-1.68111,0.0160233,0.0345285,0.0141866,-53.6727,12.878,6.96021,2
transient activities,122.0,33.625,7.76044,-0.440214,2.81345,-0.413059,-0.234861,0.283899,-41.7584,12.7917,-2.45088,36.0,-0.146217,9.48809,2.09974,-0.0258631,0.118392,0.0730599,2.91208,-32.7899,-27.298,34.375,9.86704,1.69408,-1.31473,-0.0362673,-0.148025,-0.124729,-51.1355,13.198,39.0823,4
ironing,85.0,33.875,-6.40675,2.73906,6.43925,-0.0616183,-0.109018,0.285866,14.9769,-9.25536,-49.2819,36.25,-1.82282,9.49604,-3.08055,0.0076459,-0.0854693,-0.0399962,3.1578,-39.9162,-4.41317,34.9375,9.70608,-0.887474,-1.22318,-0.095726,0.0781393,0.0670799,-37.1927,12.8965,41.6846,6
standing,84.0,32.5625,-8.87084,2.80251,2.89978,-0.0370734,-0.010145,0.127273,34.1547,-12.2903,-9.59624,35.6875,0.307551,9.70288,0.674587,-0.206297,0.0168193,0.122464,-4.08344,-28.7681,-6.02511,33.4375,9.84524,-0.162843,-1.72792,0.0161811,-0.0351508,-0.0384572,-6.13411,-2.70922,24.4768,3
transient activities,95.1818181818182,32.9375,-9.04786,2.86316,1.04953,-0.128833,-0.027948,-0.0332641,39.1774,-18.0946,-16.2069,37.6875,2.00741,9.38426,-1.07474,0.0434693,0.0229771,-0.0462319,2.47603,-37.5697,-4.29023,31.9375,9.38655,-0.298617,-3.35254,0.000912254,-0.0112715,0.0121418,-21.0937,15.1337,24.8607,7
