activityID,heart_rate,hand temperature (°C),hand acceleration X ±16g,hand acceleration Y ±16g,hand acceleration Z ±16g,hand gyroscope X,hand gyroscope Y,hand gyroscope Z,hand magnetometer X,hand magnetometer Y,hand magnetometer Z,chest temperature (°C),chest acceleration X ±16g,chest acceleration Y ±16g,chest acceleration Z ±16g,chest gyroscope X,chest gyroscope Y,chest gyroscope Z,chest magnetometer X,chest magnetometer Y,chest magnetometer Z,ankle temperature (°C),ankle acceleration X ±16g,ankle acceleration Y ±16g,ankle acceleration Z ±16g,ankle gyroscope X,ankle gyroscope Y,ankle gyroscope Z,ankle magnetometer X,ankle magnetometer Y,ankle magnetometer Z,PeopleId
ironing,88.0,33.8125,-6.05542,3.19372,6.6739,-0.560412,0.159437,0.481877,25.5811,-25.7112,-57.2088,36.1875,-1.04906,9.65554,-1.40205,0.196788,-0.13544,-0.128894,-1.39064,-39.6135,-9.94571,34.9375,8.06367,0.805547,-2.71693,1.52046,-1.01561,-0.982677,-41.5326,17.2227,38.2604,6
transient activities,169.0,30.25,-4.76269,7.93693,-0.596847,-0.845068,-0.0267813,-0.497981,36.4372,-24.1687,-10.0976,33.5625,1.35241,10.1749,-1.39895,-0.178368,-0.567607,-0.0889251,9.16822,-38.2274,14.6337,33.0,10.0994,0.0279102,-2.03521,-0.110521,0.728098,-0.484582,-38.0779,3.29061,6.23528,1
standing,69.0,32.875,-9.22699,2.42239,2.51085,0.0959546,-0.0345029,-0.0806757,32.1674,-10.0211,-8.36771,35.4375,0.0345554,9.80645,-0.840812,0.0434093,-0.03646,0.00552133,-1.64173,-32.0038,-1.81241,32.25,9.63565,-0.8776,-2.38165,-0.0448729,-0.00616628,0.0309749,-2.67769,-3.74179,4.09801,7
transient activities,113.0,33.8125,-11.2341,2.96699,2.24802,-1.86355,-0.125217,2.58477,58.0863,7.02067,5.49828,35.9375,2.08056,10.0808,-3.82487,0.0149114,0.359728,-0.524136,-3.54616,-57.2951,32.1888,34.8125,10.4684,3.02048,-1.47115,-0.638725,0.409001,-1.33185,-11.2349,-9.66265,4.76356,1
sitting,74.3,33.5,0.739914,7.87353,5.60528,-0.423976,-0.0328454,0.0078454,3.10639,-21.7569,-21.0984,35.8125,0.778205,9.96787,1.10818,-0.0378516,0.000545073,-0.00632754,3.84046,-24.3352,-5.62492,34.6875,9.34876,-0.792614,-3.27268,-0.0154446,-0.0156709,0.00260466,-17.7849,-3.09287,12.2704,6
transient activities,187.0,30.8125,3.00432,-5.0885,4.95167,-3.1693,2.02253,2.09809,-3.2632,24.3669,-32.9136,34.0625,0.56973,10.1149,0.484393,0.0403219,-0.0680216,-0.116063,5.74635,-34.7428,13.342,31.6875,9.54632,0.143124,-1.77147,-0.0154953,0.00587609,0.0390426,-22.0221,12.5812,16.7759,8
vacuum cleaning,93.0,34.1875,-2.64804,10.8559,0.964476,1.58847,-0.0464133,0.437284,6.24865,-51.9558,-20.7904,37.3125,-3.83075,8.3298,-3.88755,0.157428,0.0371835,-0.0475014,14.2676,-49.1106,9.67577,33.125,9.90373,0.276398,0.238027,-0.0696808,0.0196067,0.00436823,-64.3034,14.7237,28.1131,7
lying,86.0,33.8125,6.42227,-2.02332,7.03236,0.0422069,0.0190102,-0.0169804,-40.1334,-7.40743,-15.3236,36.8125,0.987819,-0.67179,9.20052,-0.0233021,0.0597802,-0.0482694,35.1701,14.8995,-28.8954,33.375,-0.907307,6.63322,-7.43726,-0.0231085,-0.0161372,0.00888202,-14.8019,8.16455,38.2231,8
transient activities,155.0,27.9375,-5.56439,4.6278,2.01945,-0.599835,1.88564,-2.00814,33.6175,-16.799,-7.27969,33.1875,2.94243,6.07709,-5.22892,1.7227,1.39973,0.0253864,-3.34139,-17.2673,25.0239,33.875,8.46381,1.76766,-4.60969,0.278335,-0.548107,-0.301744,-30.9829,-7.94475,21.0232,6
vacuum cleaning,109.0,34.6875,-5.76816,-11.7829,3.88067,0.391646,-0.897427,-2.33321,49.6111,4.79799,-23.1909,38.25,0.601316,5.31058,-8.32779,-0.145246,-0.163832,-0.171921,-21.7884,-24.2045,33.5362,34.6875,9.1615,-2.08429,-3.03505,-0.0548251,0.214456,0.602553,-27.6937,-19.2524,-3.20543,8
ironing,92.0,34.6875,-4.60276,-5.58124,6.80224,-0.109757,-0.0367156,0.570004,19.797,20.2704,-49.602,37.75,-1.58906,9.55162,-0.327305,-0.0384,-0.299309,0.226626,-6.58957,-36.8427,-9.5746,34.5625,9.61791,-0.263999,-3.11884,-0.0824335,0.15038,0.0307687,-41.635,-17.9147,-3.68152,8
Nordic walking,115.0,30.6875,-0.539999,-7.79567,4.59981,0.79427,0.503273,0.498971,-4.40135,24.1711,-45.1147,33.8125,-3.1683,13.1076,1.33625,0.0708138,0.323661,0.207413,-10.2604,-38.5104,-11.8467,31.8125,14.1599,1.4419,-1.61645,0.300151,0.992007,2.12718,-46.7345,1.17734,10.1779,8
transient activities,109.0,34.5625,-13.5879,-0.881822,-1.66147,3.05212,-2.03038,-4.27947,45.59,8.63103,5.66505,38.125,0.686168,6.00454,-0.351998,0.0987332,-0.0599543,0.344657,18.8777,-30.847,17.6414,34.5625,9.52017,-0.637107,-3.85073,1.18636,0.10423,0.0376138,-37.2757,31.3858,23.3666,8
transient activities,124.0,28.9375,-0.0649049,8.17982,5.20732,-0.252208,-0.0854931,-0.129484,16.0479,-22.3244,-22.3023,34.25,0.0769745,9.85369,0.592478,0.0206622,0.0973009,-0.140057,7.2145,-26.0237,9.91862,32.75,9.55931,0.530282,-2.69989,-0.0273438,-0.0419732,0.0102041,-26.1612,-0.752775,9.25972,4
transient activities,78.0,33.4375,-9.74724,-1.56745,1.40038,-0.0208665,-0.0423695,-0.01895,48.8651,-7.17619,11.266,36.25,0.0220502,9.54895,0.05038,-0.0303849,-0.00281542,-0.00224867,6.62604,-38.6576,26.0608,33.0,9.47881,-0.3422,-2.73389,0.0349498,-0.0371041,-0.00849205,-36.3476,38.4278,-17.7697,8
Nordic walking,85.0,33.0625,-1.01081,3.03497,1.86211,-0.6821,0.255929,3.14979,21.4688,-38.6105,-5.02309,38.3125,0.324784,5.54988,-0.937881,0.0948272,1.06764,0.229154,-2.87256,-32.3749,26.241,32.3125,3.47581,-5.68897,-3.61124,-0.0693719,-1.07296,4.2164,-15.6797,-40.8173,3.52795,7
lying,82.0,31.8125,7.07024,1.23013,6.53075,0.0210199,0.0372063,-0.0108205,-1.97717,23.4745,-55.3199,33.5625,0.545762,-0.0647982,9.65519,0.0124856,-0.0197624,-0.00988119,46.4656,12.2586,-45.776,32.1875,-0.0794104,-7.07945,-7.30508,0.00751067,-0.0143973,-0.027257,-19.2165,44.9643,-0.158523,1
sitting,75.0,31.875,0.302465,4.89891,7.76406,-0.0479714,0.136593,-0.00182836,0.0875704,-11.8193,-27.9491,34.875,0.713538,9.30213,2.85162,-0.0280525,-0.00966496,-0.0590088,4.54354,-18.9861,-7.47452,32.8125,8.86193,-0.0229607,0.499328,1.67626,0.329675,-0.385937,-15.5882,-3.827,17.3631,3
transient activities,164.0,33.5625,5.22727,6.28363,5.71635,0.0107704,0.00286898,0.0238679,-13.5024,-27.6925,-16.5669,37.8125,1.71038,9.92258,0.428241,0.0383992,0.00480161,-0.040844,1.58551,-30.307,-11.6699,33.625,9.45217,0.0351533,-2.42779,0.0384351,0.012995,0.0487041,-4.73221,-10.8587,0.836902,8
transient activities,95.0,35.25,-11.7118,3.3908,2.54734,-1.1061,-0.367862,0.841267,33.0171,16.2248,-33.8564,37.6875,1.90384,11.1469,-2.16654,0.112245,-0.217666,-0.0570982,19.8563,-15.1537,21.7892,34.3125,10.3269,0.606701,-3.34851,0.0128304,-0.493819,-0.789543,-46.2692,-19.7306,0.701075,5
transient activities,101.0,33.0,-7.37924,3.1169,1.18913,-0.497478,0.17429,-0.0750012,39.2617,-43.5979,-9.76071,37.5,1.17641,8.76022,-4.6501,0.142012,0.331553,-0.050272,-12.5381,-48.0129,3.13654,35.0625,9.292,-2.39453,-2.33717,-0.00584187,-0.0368999,0.0236998,-40.211,39.0933,41.2927,2
transient activities,97.0,33.375,-6.5449,6.50141,2.76819,0.00804814,0.0061889,-0.00530641,17.5334,-41.6659,-19.6752,36.5,0.577154,9.45063,-3.07564,0.0175224,0.00470695,-0.038691,-17.4189,-33.2753,10.0693,34.1875,9.71422,-1.2214,-2.18576,0.00563104,0.0313874,-0.00871464,-45.8573,-1.90967,61.9439,2
transient activities,129.0,34.625,1.5954,8.2128,1.88368,-1.87737,0.191637,0.130641,14.832,-28.3357,-15.7018,38.3125,0.857363,9.91316,-1.36835,-0.238959,0.258948,0.0391616,8.28171,-25.6817,15.1413,34.3125,9.34636,-0.829941,-3.34965,0.170231,0.0679753,-0.0599291,-29.7072,-7.52522,10.2479,5
Nordic walking,115.0,30.375,4.42348,6.56942,-1.18589,-2.3757,0.67656,-0.877971,-2.24817,-41.944,-16.6345,35.8125,-4.79721,14.2929,-2.33688,-0.586176,0.252198,-0.329597,-7.5899,-38.4821,-9.85426,34.625,20.8721,-14.0229,-9.97993,-3.4055,0.854913,-3.18219,-39.4207,-10.9875,25.252,6
transient activities,125.0,30.875,-9.65134,-1.14635,1.90074,0.302099,0.194965,-0.229339,34.7026,10.5712,-3.24845,34.0,0.559484,9.69868,0.175793,0.0727725,-0.186781,-0.0837476,15.9696,-26.8552,2.93404,31.75,9.57243,0.298295,-2.19665,-0.271173,0.0766855,0.101265,-27.9777,13.2795,21.8601,8
transient activities,149.3,32.5625,-4.46476,7.01358,-5.9775,0.000824729,-0.00512831,-0.0467104,10.9466,-49.8188,23.2811,35.375,1.40375,9.85664,1.66197,-0.0465011,0.012979,-0.0474407,-10.8844,-47.0062,-5.17564,33.375,9.46576,0.536217,-3.35691,-0.0400213,-0.00504944,-0.0690446,-63.1027,14.0645,43.1523,4
Nordic walking,122.0,30.8125,1.27196,-0.548444,1.98536,1.13088,-0.97669,0.204912,0.687222,30.0046,-9.20284,33.9375,-0.379301,11.1348,0.502605,0.199512,0.280498,0.275749,16.8146,-26.1073,-2.14048,31.75,9.59479,-0.267938,-2.61739,0.303736,0.132359,0.0190122,-24.0896,12.0649,24.9955,8
transient activities,97.0,34.5,-8.71607,-1.09981,-0.548604,-0.225476,-0.0136146,-0.777745,43.8318,19.6448,4.81442,38.125,0.945958,15.1814,3.7273,0.0956185,-0.47392,0.0644117,16.687,-32.3317,34.6961,34.5,16.0053,0.280167,-4.90902,-0.368865,1.52862,2.54558,-10.5838,46.6797,-14.4265,8
rope jumping,156.0,33.8125,2.71828,11.4376,-5.61542,6.90019,-3.59967,-1.12132,7.97247,-47.3158,3.32466,36.4375,0.563305,2.35278,-0.303633,0.158882,0.00121531,-0.121097,25.2147,-41.8902,-4.95352,34.0625,7.826220500000001,13.49429,-12.773515,-1.3565825,0.669202,2.429367,-47.958650000000006,-2.60126,-3.93428,5
ironing,78.0,34.6875,-2.25817,-9.33117,1.11539,-1.35239,-0.602909,0.185381,10.2878,32.9509,-32.7307,37.8125,-0.0287702,10.2148,-1.73387,0.394661,0.152983,-0.000222642,-6.9933,-37.9908,-7.45582,34.625,9.67245,1.32788,-2.81945,0.116557,0.0154008,-0.0645021,-36.9549,-13.2747,-10.0529,8
transient activities,105.0,28.875,-5.89463,3.23284,6.94559,-0.0195078,0.0280356,-0.0141526,46.6075,-25.6985,-30.4801,34.125,0.968255,7.58153,-6.4312,-0.00487373,0.00973517,-0.0452697,-7.70518,-25.8999,47.7443,32.75,9.59672,1.9917,-0.35461,-0.0449319,0.0204101,0.00995507,-32.7672,-18.4376,12.661,4
transient activities,118.0,31.125,-0.302661,6.86305,6.24736,0.0983363,-0.190738,-0.196823,-5.49615,-26.733,-19.2505,36.9375,0.0800073,9.70385,0.709183,0.0454997,0.062798,-0.0311419,-8.07515,-24.6414,9.36471,34.5625,9.70785,-0.556441,0.0868284,0.0169658,0.036978,0.0181507,-36.1922,15.7624,26.0337,3
walking,100.0,32.125,-13.0037,1.19258,1.68868,0.839143,1.70649,-2.44552,55.043,-8.41081,-42.0192,36.625,0.489193,9.2023,-0.869333,0.385873,-0.146046,0.162517,25.5732,-55.177,-14.3229,34.9375,3.28143,0.926184,0.127492,0.254832,-0.309114,2.11249,-47.2105,-17.2706,-10.5098,6
transient activities,90.0,34.8125,-9.96463,-0.995273,1.54915,-1.10167,0.157191,1.04378,41.3687,-0.109654,-40.0734,38.1875,-0.496694,12.7237,1.54078,-0.171416,0.29951,-0.282785,-13.851,-36.9651,-6.38133,34.8125,12.9827,0.514251,-3.35929,-3.86592,0.062867,1.56396,-70.3629,-31.5856,26.1598,8
Nordic walking,137.0,32.125,1.47309,6.11013,4.23667,-0.380484,0.119301,0.00831142,-10.9215,-23.6464,-57.1141,36.8125,-1.28213,9.73052,-1.5614,0.08495,0.00741757,-0.0779485,16.5283,-49.3816,-26.5785,34.0,9.66861,-0.0506426,-1.38312,0.0227643,0.00800169,-0.0104643,-53.3689,32.1831,23.1311,1
walking,122.0,32.9375,-9.44416,-3.30195,2.8733,-0.0656152,0.735256,1.62496,41.6157,-25.2865,1.15444,37.4375,0.816316,9.10224,1.18913,-0.0298413,-0.31712,-0.26683,6.21927,-42.8875,15.6476,33.0625,22.9725,-18.0671,0.138581,-0.333465,-2.38764,-5.66777,-47.4698,5.84924,10.3118,8
sitting,75.0,31.875,0.207856,6.93983,6.79357,-0.0542825,0.0182248,-0.0140879,1.33798,-20.4185,-24.9314,34.8125,0.236249,9.27017,3.46261,0.0133223,-0.0269107,0.0150738,4.86185,-18.2067,-8.32668,32.8125,4.11819,-5.54865,-7.34871,0.0492295,-0.0172618,-0.00511744,-13.3362,17.2476,27.9669,3
sitting,79.0,34.375,-1.94988,-9.68262,0.274474,0.422053,0.0462227,-0.0311953,7.13149,24.57,-13.1199,37.625,0.183013,9.73855,0.323726,0.0423149,0.0101761,-0.0251031,6.51973,-25.3394,-3.2035,34.0,8.88192,2.77919,-3.26105,0.0272962,0.0167429,-0.0135214,-17.9468,16.6475,23.8771,8
cycling,132.0,34.125,-2.33312,7.17578,9.71824,1.39219,-0.079738,0.685996,9.76861,-19.1533,-49.3426,37.625,1.41683,10.0066,-9.52863,-0.409846,0.15017,0.393643,-4.92947,-42.4723,12.0426,34.1875,2.97023,-0.69292,-1.29347,-0.337129,0.745877,1.9168,-42.0805,12.7083,26.208,5
transient activities,90.8181818181818,33.25,-15.2854,2.8924,3.0728,-3.019,-1.70658,1.00787,48.3714,6.38887,5.37127,36.875,-1.64047,8.99302,0.564161,0.392856,0.428038,-0.224831,-3.99404,-37.1073,25.7127,34.25,9.82304,-0.194387,-2.49974,-0.250358,-0.184121,-0.680987,-38.6936,-21.0084,26.776,3
transient activities,91.0,31.5625,-0.287665,8.75921,1.9306,-0.341882,-0.150819,-0.166188,-3.07063,-27.6186,-20.5608,34.25,-0.721543,9.70609,0.655933,0.012066,-0.0229291,-0.0146796,3.82032,-27.1054,-8.96739,32.25,9.77386,0.292933,-1.69289,-0.00969316,0.00730232,-0.0310375,-3.37393,-4.78533,15.52,3
transient activities,198.0,30.8125,-5.44945,-6.73438,4.40723,-0.294765,1.079,2.13108,9.99903,42.5347,-13.7596,34.125,-2.07463,9.69718,-1.3046,0.16631,-0.256283,-0.0141794,31.3158,-33.4797,-0.16467,31.6875,9.30939,-0.107337,-3.47029,0.0520809,-0.0214375,-0.14773,-32.62,12.4026,38.8646,8
ironing,82.0,32.875,-5.41352,6.47375,4.90204,-0.0229256,-0.135687,-0.275175,13.0483,-18.2212,-37.0776,36.125,-3.14575,8.93826,-2.67677,-0.188142,0.0421221,0.198087,8.85413,-32.5822,-2.76951,33.75,9.3581,-0.284351,-0.420111,0.316045,-0.23072,0.353579,-35.118,15.4033,33.6954,3
transient activities,96.0,33.25,-8.18824,3.51743,2.83062,-0.198764,0.32058,0.00381285,35.8087,-38.2635,-11.4846,35.1875,-0.938056,8.82655,-1.43606,0.231174,1.38522,-0.0477015,-13.4406,-37.3577,-15.2595,34.3125,8.49109,0.227949,-2.05294,3.17906,2.27755,3.17953,-36.1905,-35.1451,51.9558,6
transient activities,149.0,33.8125,-1.88381,8.56152,3.87022,-0.0493329,-0.416024,-0.175107,-24.207,-48.2137,-10.7778,36.375,-0.234435,9.84441,-0.923251,0.199578,-0.634446,-0.314366,-9.44806,-39.546,-36.652,34.0625,4.40683,-2.36861,-1.77,-1.61581,-0.342334,0.250557,-53.9132,4.41128,24.8995,5
standing,81.0,33.625,-7.84074,3.86728,4.06624,-0.159029,0.137107,0.0569008,24.0098,-22.7597,-37.5387,36.0,0.823999,9.69732,0.103147,0.0394983,0.0926123,-0.0442837,-4.88952,-31.2238,-16.3629,34.8125,9.80852,-0.238864,-1.68923,-0.000116172,0.0837041,0.0713224,-38.6026,23.2551,37.8382,6
sitting,78.81818181818181,32.9375,-2.66654,6.43119,6.79072,0.0116148,-0.00718595,-0.00736279,8.57166,-20.4366,-22.9547,35.125,0.791001,9.60583,-2.29785,0.0195651,-0.0482138,-0.0541866,2.77633,-24.0481,3.95434,33.875,9.74434,1.80123,-0.390504,-0.0181347,0.0063946,0.00516772,-7.01229,-6.43273,22.3822,4
standing,73.36363636363636,34.4375,-9.27812,0.904442,2.43823,0.00839914,-0.00819754,-0.0116154,39.6755,-13.1629,-24.3742,37.5625,-0.991876,9.6685,0.534995,0.0729738,-0.00961106,-0.0177452,-1.71994,-37.1614,-0.0916152,34.125,6.79255,-7.17232,-1.17547,0.0243631,-0.0242461,0.0168083,-15.2682,30.2641,15.219,8
transient activities,135.0,32.125,8.2545,1.35502,0.351603,-3.31415,0.109801,-1.29541,-21.1391,-17.7368,-38.9954,36.75,2.15643,7.65198,-1.02769,-0.186926,0.610442,0.0535986,19.3075,-39.4158,-2.37497,34.0,9.46834,0.600827,-1.96806,-0.444992,0.0886443,-0.0361467,-38.8852,6.98693,-4.23988,1
transient activities,98.0,33.875,-9.05949,5.06661,1.34982,-0.865456,-0.539252,-1.40888,35.1044,-30.3163,-25.309,37.9375,-0.424399,8.76522,-4.67912,-0.0924157,0.127827,-0.0888609,0.440179,-46.2233,4.43908,35.1875,9.68799,-1.62607,0.903644,0.0524961,0.0053129,-0.0104113,-48.4828,29.4662,-1.56982,2
standing,78.0,33.625,-7.52559,4.17115,4.37783,-0.0292425,0.0253048,0.0140424,23.1732,-31.8807,-11.7602,36.0,1.31198,9.88223,-0.15966,0.0347667,0.00716833,-0.0372418,-11.0756,-23.6621,0.33066,34.8125,9.13452,-0.707461,-4.24015,0.0150898,-0.0453331,-0.00862149,0.920378,0.684939,38.0034,6
Nordic walking,137.0,33.0,-0.72945,23.5664,6.8389,3.02277,0.452195,0.436182,-10.0176,-41.7724,-9.13957,38.375,-0.980565,4.57339,-1.19068,0.825646,0.925471,0.723254,-8.43214,-36.3818,-15.3712,32.5,8.45016,0.191181,-2.1689,2.93484,-2.14488,4.7255,-34.8389,-13.6462,30.6608,7
walking,124.0,32.5625,-15.5874,-0.0885397,0.422704,-0.307444,2.10554,3.14421,52.7532,5.13351,-13.0944,37.125,1.47588,11.6154,0.0700019,-0.0699951,0.330195,-0.080897,0.959078,-46.6939,18.0297,32.8125,1.72638,-3.6272,-3.68056,0.594242,0.379394,0.784624,-25.8058,40.2166,-18.7275,8
lying,70.0,31.5,12.4251,4.47955,1.25026,0.975878,0.757261,-0.614337,-15.0176,6.32604,-33.8298,34.0625,1.05807,1.96953,10.0451,0.877404,-0.1251,-0.0553529,30.9379,2.1127,-28.2515,32.0625,0.545561,-10.5453,-1.79744,-0.314774,0.335887,-0.177641,-16.2322,20.2356,-7.00697,3
ascending stairs,141.0,32.1875,-9.51038,5.49713,2.41926,0.208541,-1.03195,0.816109,41.1012,-1.72701,-16.1585,36.75,-0.301678,11.6617,0.502299,-0.539827,1.3714,0.675423,-1.11825,-32.564,-5.00462,34.375,23.4987,15.7404,-2.22684,-4.08002,-1.63318,-1.38684,-33.2355,16.6011,4.60475,3
transient activities,93.0,31.125,5.60901,5.24936,4.95581,-0.632432,-0.530996,-0.420401,-7.14373,-21.2054,-14.7819,36.1875,1.00744,9.7415,1.15179,-0.0688099,-0.100317,0.0954942,1.07241,-25.278,6.91056,34.8125,9.69292,0.181108,-1.88597,-0.014928,-0.0291253,0.0355649,-29.9098,-5.46358,7.40818,6
ironing,91.0,34.75,-5.50111,-2.33339,8.54825,-0.365963,-0.385175,0.171869,23.3305,10.0267,-54.2714,37.875,-0.703973,9.42039,-2.59538,0.0540386,-0.520689,0.304549,2.02766,-40.2599,-5.82913,34.625,9.30873,1.03365,-3.70891,-0.258229,0.00156502,0.110047,-38.9447,-22.6737,-0.262569,8
rope jumping,199.0,30.8125,-3.57786,-7.21648,7.28496,-1.76753,1.88777,-0.983007,4.93484,42.9261,-18.0824,34.125,0.248673,6.05424,6.76457,-0.321345,-0.155004,-0.387147,25.3669,-39.8453,7.30331,31.6875,10.5628,-8.41622,-5.18099,-2.97423,-0.192878,3.09054,-29.0249,23.0358,38.1558,8
cycling,122.0,32.9375,-3.06737,-0.946974,8.73398,-0.290737,0.113313,-0.0232981,14.6732,-1.54918,-55.2335,38.125,1.44152,8.2523,-7.23795,0.556017,0.201693,-0.346388,1.0865,-43.0841,14.767,32.3125,5.89515,1.23695,-2.74185,0.477883,0.161977,-0.185064,-37.3974,20.9745,27.0658,7
Nordic walking,137.0,33.0,-0.0138096,10.2744,1.89111,-0.438622,-0.639556,3.18172,1.17009,-43.4848,-6.78966,38.375,2.97281,4.8973,-1.50732,-0.392288,-1.07269,-0.729293,-11.7084,-37.0389,-11.3012,32.4375,9.30077,-0.0774828,-2.46723,-1.40309,0.411227,-0.547673,-32.9288,13.31,35.7422,7
cycling,136.0,28.8125,-5.00891,-0.0548377,9.20222,-1.30064,0.911595,-0.776961,51.1807,5.07982,-33.0382,34.625,-2.17266,3.87369,-10.5418,-0.566206,0.0387297,-0.799789,27.4475,-3.07443,42.0781,34.0625,15.0193,0.953215,-2.87806,0.0318336,0.0761678,0.00989226,-39.8654,-14.9006,0.576167,6
sitting,81.0,34.9375,4.77632,8.42695,3.1622,0.328978,0.314884,0.275406,-6.56975,-22.11,-22.5202,36.875,0.181898,9.89758,1.56226,-0.120158,0.596455,0.165435,5.36172,-24.0056,-4.48817,34.125,9.2792,-2.31474,-2.80087,0.520222,0.422459,-0.225835,-33.7694,0.5823,27.6696,5
transient activities,82.0,31.625,-0.81463,4.41949,8.32625,-0.148316,0.014441,0.0296841,3.54791,-7.07442,-40.2048,34.375,0.0141717,9.74407,1.05635,-0.0225209,-0.00260762,-0.0103276,1.85841,-25.9088,-10.4665,32.3125,9.78577,0.251431,-1.26802,-0.00839751,0.0174599,0.00844807,-2.6874,-5.58652,15.8772,3
Nordic walking,121.0,34.8125,-2.9773,3.47616,2.79335,-0.435428,0.054258,3.73894,29.882,-35.3474,-20.8078,38.5,0.101517,5.43893,-0.747961,-0.0225823,-0.357312,-0.369283,11.4457,-38.0575,22.1428,34.375,8.96376,-0.102633,-3.78258,-0.115236,0.0210697,-0.435296,-41.0703,-15.0456,18.3011,5
lying,84.0,31.6875,7.29698,1.22838,6.53416,0.00649958,0.01095,-0.0135289,-3.41263,23.7662,-54.6059,33.5,0.65583,0.0467683,9.50194,-0.0095133,0.0642839,-0.029508,46.0826,13.5028,-46.0253,32.125,-0.0027539,-7.1565,-7.22664,0.0348621,-0.0120707,-0.0224368,-18.9966,44.6403,-1.27779,1
ironing,92.0,34.75,-5.48955,-1.50707,7.62194,-0.106415,-0.196961,-0.740329,35.9603,-14.7114,-38.2679,37.9375,0.707411,9.41625,-2.53108,-0.17506,0.0422669,-0.187646,-14.8526,-33.9818,12.4893,34.6875,9.15522,-0.751533,-3.50646,-0.0661796,0.118981,0.106928,-27.6738,21.5561,-4.10369,8
vacuum cleaning,138.0,33.625,-7.72087,8.09019,1.20572,2.05145,-0.559139,-2.64822,38.1995,-24.8742,-5.49624,35.625,0.621669,3.34963,-8.74698,-0.0317341,-0.528318,0.757544,3.60634,-15.3166,46.6957,34.5625,9.034,4.27723,-0.837639,-0.0751823,-0.540187,0.489865,-57.465,22.5403,12.293,1
transient activities,112.0,29.875,-6.95123,0.701516,-1.22102,0.971638,-1.01437,-3.02546,33.2185,-28.9539,-28.9897,35.0625,0.326656,11.7393,1.13297,0.454577,-0.187611,0.469607,15.0334,-36.5048,13.9807,33.0625,11.704,1.43677,-3.76403,-0.963216,-0.119533,-1.59603,-38.5851,-27.9379,10.6659,4
running,160.0,28.8125,-10.1862,15.0253,-10.3238,-2.61875,4.4137,3.16848,20.1886,-31.3652,-11.8407,32.0625,2.75068,15.7197,-4.87652,-1.79511,1.96836,-0.893208,10.6563,-19.5593,32.823,31.5625,14.5515,4.96024,-0.36081,0.182335,0.788843,-1.21741,-33.1411,-17.9508,-2.5724,2
Nordic walking,113.0,30.25,-9.41045,13.7686,2.50831,0.93409,-1.07789,2.15855,18.9568,-28.4438,-33.2945,35.6875,5.85993,12.7798,-3.80389,-0.457717,-0.225901,0.101821,13.9312,-34.7658,-6.62352,34.5,5.67973,26.5113,-15.0566,7.44001,-0.0359872,-4.07735,-35.677,22.0965,0.122488,6
transient activities,110.0,33.4375,-5.89267,2.88271,5.98462,0.775849,-0.295927,0.580723,-26.5024,-39.5737,-51.4366,35.4375,0.128402,9.10658,-4.05068,-0.181368,-0.0206988,0.0125334,1.63019,-58.3317,-7.69443,34.3125,10.1131,0.963871,-0.420115,-0.00091923,0.0657901,-0.00525829,-60.8743,19.3863,43.2319,1
Nordic walking,126.0,29.625,-10.1172,8.59822,4.97836,-0.793144,-0.510048,0.582564,37.1339,-33.0005,-15.0625,34.9375,1.34497,12.2368,-8.29811,-0.143034,-0.203463,0.0822658,-5.12715,-41.412,-8.12844,33.0,9.68402,10.3628,-11.9825,0.71985,-0.974507,-3.36888,-35.1287,30.3658,19.404,4
transient activities,139.0,30.875,4.70703,-6.14561,-5.64178,0.291557,-0.266098,0.0973985,-6.99433,30.3086,17.3197,34.0625,-0.096993,10.2168,-1.46406,0.163919,0.13028,-0.0313148,1.97935,-41.3103,13.6351,31.6875,9.76313,-0.920777,-1.83982,0.00198027,0.0473293,0.0237225,-30.0627,-5.52355,28.1152,8
sitting,68.0,34.3125,-1.94401,-6.7821,6.38427,-0.0770754,0.00163052,-0.0249485,6.88303,16.0099,-28.9466,37.625,0.503297,9.92924,0.832281,-0.0283085,-0.0207456,-0.0412045,5.27156,-25.1617,-5.75128,33.875,9.27768,2.88463,-2.52444,-0.00258465,0.0153103,-0.0191276,-19.0519,15.4198,25.4348,8
lying,61.0,32.875,5.49585,0.460041,8.12624,0.0196746,0.00312029,-0.00274683,17.26,6.63012,-50.9577,34.9375,-0.483425,1.63178,9.47615,-0.00939824,-0.0680227,-0.0511781,40.0645,5.69064,-28.2451,33.625,2.49981,-9.4406,0.917014,0.00281402,-0.0287581,-0.018739,-21.4094,16.325,-13.011,4
ironing,90.0,35.3125,-3.98913,4.16908,7.24039,-0.12177,0.69807,-0.303029,5.85974,-13.61,-51.5992,37.375,-3.01989,8.81886,-3.56468,0.176159,0.514132,-0.140399,15.1968,-37.0085,-3.21788,34.4375,9.66538,0.167769,-0.226818,0.199587,0.0943923,-0.215576,-48.6469,22.1805,27.4504,5
transient activities,119.0,32.5625,-5.53737,1.30303,7.84266,-0.31841,0.217037,-0.154842,34.2376,17.0191,-47.3806,37.25,0.924581,8.80208,-4.15142,-0.301609,1.14739,-0.403531,25.787,-35.8732,17.154,32.0625,8.65781,-0.924718,-5.16984,0.689124,-0.268277,-0.127099,-46.7326,23.5696,7.03166,7
ironing,103.0,33.4375,-9.06299,2.15934,2.93756,0.0789182,0.0102523,-0.0543855,38.7764,1.29703,0.211579,35.375,1.07318,9.66362,0.804748,0.0388367,-0.0535622,-0.0343648,-12.2382,-27.234,3.86796,34.0625,9.53575,1.287,-2.35752,-0.0391252,-0.0135956,0.0387978,-3.45625,-19.1406,8.08443,4
transient activities,106.0,34.4375,-9.52121,2.9472,1.54249,0.596604,-0.259267,-0.0905844,35.252,-19.1291,-20.6545,38.0625,2.54162,9.60851,-1.0658,-0.251014,0.0724793,0.191617,2.3019,-33.8225,-5.01774,33.75,9.62742,-0.342827,-2.77095,-0.0948747,-0.0318906,0.111739,-29.5585,17.5839,14.0488,5
ironing,88.0,34.0,-2.98894,7.75402,5.93471,0.0516871,-0.1576,1.05119,18.8565,-38.853,-19.1894,36.375,-0.653747,9.39414,-0.890663,0.122363,0.28666,0.147226,-1.73728,-34.83,-8.98825,35.0,10.5368,2.41347,-1.58245,-0.720156,-0.595015,0.78148,-34.7744,17.6594,38.7091,6
transient activities,97.0,34.25,-9.53628,-1.53529,0.941586,0.0121725,-0.0291842,-0.166829,37.7593,6.67331,-20.6849,37.5,0.00357889,9.62878,0.708042,-0.0232524,-0.00802763,0.0107495,-1.68457,-30.4477,-8.44875,33.8125,9.55256,-0.342353,-2.77172,0.00195937,-0.00629735,0.0240073,-1.02523,17.3394,20.8156,8
descending stairs,158.72727272727272,33.25,6.43806,2.24188,8.78863,0.358024,-0.609528,-0.234525,-1.87884,-31.8189,-62.4966,36.6875,-2.36115,9.00744,-3.20487,-0.128749,-1.2335,0.129566,-18.6507,-38.7264,-2.5976,35.0,11.5093,13.5112,-3.6866,2.28384,-0.321305,-1.89896,-31.6175,11.0869,46.245,6
walking,119.0,33.125,-14.4215,-2.59856,0.795022,1.16359,-0.809014,-2.56009,47.775,2.41444,-22.6478,37.5625,-1.32551,11.1971,-1.87672,-0.00756473,-0.684514,0.119697,0.560478,-38.7807,-11.9109,33.1875,10.2252,-2.01949,-2.48429,0.463512,0.0269951,1.32058,-41.0983,-12.9801,19.7169,8
transient activities,124.0,33.5,-12.3924,-0.0883175,3.24165,0.822847,0.564865,1.04029,44.329,-30.0261,-3.54667,37.6875,1.91051,11.9387,-2.01411,-0.446934,-0.620952,-0.11043,-15.5828,-30.8703,22.6189,33.5,6.68683,9.10175,-4.01741,-0.13039,1.80297,2.12971,-10.0762,33.0927,-29.1595,8
walking,121.0,31.5,-6.89489,0.990527,1.43448,-3.00841,0.452005,2.95611,39.5062,-2.01366,-28.9892,36.375,-0.204476,4.45249,-1.98937,0.0940349,0.23706,-0.21884,16.9872,-24.7741,30.0928,34.4375,10.0364,-2.13189,-2.52412,-1.093,-0.00255105,-0.374284,-40.7887,-5.06424,2.82631,2
ironing,81.0,33.5,-1.91409,4.92917,9.19328,0.453644,0.91966,1.22156,-7.00225,-23.8377,-42.3249,36.3125,-1.00027,9.07587,-3.56765,-0.221846,0.581971,-0.235902,0.812862,-39.4522,4.59216,32.6875,9.64227,-1.29782,-2.07026,0.150531,-0.00270098,-0.190621,-33.7364,-13.2911,38.7487,7
ironing,76.0,33.875,-0.260151,7.40392,7.36231,-0.453765,-0.225512,2.17463,-15.6691,-47.9525,-51.4786,36.8125,3.52605,9.14361,-2.51785,-0.0381787,-0.0469378,-0.217007,-15.1708,-33.3038,-7.82134,32.875,9.06536,-0.670624,-4.04814,-0.044767,0.0224181,0.0438471,-25.2264,1.90408,52.8024,7
standing,81.0,33.6875,1.31526,2.55083,9.13421,-0.0440776,0.00786969,-0.0919995,-7.67709,6.23115,-40.275,36.125,-0.010792,9.81368,0.203808,-0.0414071,-0.0952653,-0.0115086,-6.03392,-28.607,-11.8736,34.875,9.64251,-2.10713,-0.598831,0.0329031,-0.0533922,0.0527934,-40.4388,3.27251,41.2589,6
transient activities,110.0,34.625,-7.10906,5.93838,2.95408,-0.122027,-0.622052,0.459867,44.3385,-26.9284,-9.73338,38.3125,1.07209,5.04002,-9.13153,-0.00653065,0.0877634,0.0525267,-1.11749,-8.73087,46.1416,34.3125,8.93826,2.82215,-3.91676,-0.378277,-0.595925,-0.852186,-31.7092,-25.1105,37.9185,5
Nordic walking,125.0,30.1875,-14.9019,4.77475,1.76362,0.938142,-0.187079,-2.06667,36.0727,14.5743,-25.6464,35.1875,-1.4521,15.1949,-6.53852,0.405757,-0.158758,0.00866515,15.2177,-20.0396,32.0335,34.0,16.5508,17.0414,1.8615,0.69228,-0.187298,-3.68376,-38.9553,11.6646,9.42625,2
cycling,116.0,34.625,1.42713,-3.53931,7.07811,-0.0528614,-0.217397,0.262428,9.78765,-20.3955,-49.5976,38.1875,0.593601,7.59294,-4.92791,-0.151461,-0.0626636,0.263867,-11.1925,-42.238,9.03658,34.4375,6.66935,5.54307,-5.26896,-0.166339,-0.295373,1.57112,-38.8281,1.62505,33.7494,5
running,167.0,33.8125,-6.29586,-10.8622,-3.90479,-0.188357,-0.103304,0.00112777,-7.58128,-29.1405,-38.7483,36.375,-2.25358,-4.35339,-2.19147,-0.320691,-0.203682,-0.616499,-1.98025,-40.1047,-12.7671,34.125,16.5047,-4.87092,-2.17066,0.858579,-0.695959,-5.00519,-41.2803,-6.64118,26.9424,5
transient activities,92.0,34.25,-8.08409,8.67344,-1.76522,-0.450184,-0.071307,-0.245253,40.3464,-17.3971,6.35844,37.5625,1.90378,8.09884,-1.88558,-0.204104,0.065749,0.47992,-10.2618,-31.7014,13.0724,33.1875,5.37139,5.9709,-10.1858,0.93709,-0.610751,-2.43222,-57.7658,1.91316,29.4274,7
transient activities,105.0,32.375,0.640759,-9.07171,2.96685,-0.0125227,-0.0560264,0.0258404,0.996568,30.2412,-1.98714,37.0,0.334726,9.88843,0.287267,-0.0262017,0.0305134,0.0102039,18.1943,-26.1606,0.125489,32.5,9.17971,-0.063517,-4.08932,-0.045218,-0.0167368,0.0292994,-24.2839,12.7384,31.802,8
running,167.0,28.25,-20.5642,31.3307,-3.60657,-7.54591,4.03058,6.16258,-5.92838,-44.4687,-3.35729,33.3125,9.43254,21.592,-7.48503,0.302999,3.01689,-0.703728,-10.6151,-41.4726,-3.23112,33.875,24.3258,9.26956,-0.86616,-0.225426,0.11312,-1.82193,-43.9613,5.3362,26.6354,6
lying,92.0,33.5,6.98901,2.70632,6.06271,-0.0167468,0.0154366,-0.0178657,6.03822,-1.05853,-45.3763,36.625,1.36197,4.02929,8.53376,-0.0129113,0.00693045,0.00320646,31.8417,-4.4109,-26.8983,34.375,-0.466266,-9.72929,-3.31788,-0.118641,0.00533936,0.0245868,-12.665,22.4073,-5.52764,2
transient activities,92.0,34.5625,-10.8837,5.02063,-1.14054,0.981425,-0.336595,-0.408089,22.431,-13.2785,-15.2591,38.125,2.7324,9.24302,-4.89453,0.121774,-0.84662,0.225244,5.08646,-23.6957,4.54,35.4375,11.4403,0.0485857,-0.941078,-0.361242,0.188019,-1.02912,-20.7476,15.8764,9.44603,2
transient activities,126.0,33.4375,-7.19768,-6.04174,3.95535,0.286521,0.205095,0.833664,36.7375,45.9417,-21.8396,37.6875,1.19028,10.4253,2.12091,-0.141324,0.376607,0.168667,20.2254,-51.2402,-13.8184,33.5,6.79931,-4.38768,-2.77485,0.609413,0.150258,0.0538573,-37.9953,32.988,30.5956,8
transient activities,121.0,32.0,1.32101,7.00045,1.84517,0.796701,-0.26908,0.150693,-24.5083,-10.7972,-30.3181,36.5,2.41083,8.42983,-2.80678,-0.255829,-0.0839863,-0.125881,10.0967,-34.5835,-8.39194,34.625,10.9174,0.469881,-0.987644,0.422719,0.659376,-0.915504,-23.1916,13.662,8.20462,2
transient activities,143.0,32.0625,-11.254,5.46159,1.16166,1.72399,-1.04718,-1.58866,54.1002,-16.8127,-10.2206,36.5625,0.430473,11.635,-3.0854,0.940788,0.263831,0.0410481,-6.09496,-44.7986,6.91598,34.625,24.8962,26.0164,-6.32819,1.59742,-1.19842,5.42249,-41.616,67.3485,27.371,2
cycling,130.0,31.25,-6.4177,2.13036,6.2487,0.756518,-0.476652,-0.519997,36.9647,-41.3133,-25.904,35.9375,0.508197,8.29733,-6.59675,-0.168215,-0.431194,0.210279,-22.9874,-28.6646,24.5289,32.0,10.6758,-2.59315,-2.32175,-0.706462,0.900841,1.52263,-36.0994,9.06414,-16.8837,8
vacuum cleaning,100.0,33.125,-6.75176,6.42263,2.26502,1.43006,-0.268165,-1.14704,29.568,2.82448,-13.4313,36.6875,0.773422,9.15903,-1.56102,-0.394593,-0.0530807,0.703192,6.2439,-20.5103,18.5357,34.0625,9.71485,-0.0427649,-2.38602,-0.0224747,0.0381375,0.20869,-3.8175,-10.4913,5.93185,3
transient activities,125.0,32.0,-9.23823,2.91191,2.08567,-0.00833375,-0.00096585,-0.0116005,30.9184,-16.5405,-19.9048,36.5,1.4645,9.02763,-3.94877,0.0472495,-0.0404082,-0.000523075,4.95949,-29.7266,4.65251,34.5625,9.46897,-1.60488,-1.52988,0.00523122,0.0162953,0.0202891,-26.1096,18.5128,16.3258,2
walking,118.0,32.9375,-11.0349,-3.54592,3.88945,-0.753284,0.442383,1.00406,54.5097,-38.0159,-4.30623,37.4375,3.03008,11.2874,2.42248,0.381886,-0.0496821,-0.306352,1.81508,-61.5575,18.9661,33.0625,20.3027,-19.8445,1.31851,3.43068,0.060454,0.036808,-54.8178,-29.0734,5.92963,8
transient activities,81.0,29.8125,-6.87806,-1.12489,6.71464,0.120386,0.00432428,-0.0832812,33.2292,-4.75296,-25.0683,35.3125,-0.640498,6.59757,-7.92854,0.0340022,-0.104445,0.0711683,0.517352,-8.39005,32.6146,34.3125,8.71123,0.217126,-0.892932,0.182857,-0.155843,0.0191422,-28.0302,-12.4903,13.9472,6
lying,75.0,32.5625,6.35124,-9.25764,-0.064465,-3.3281,-1.24378,-0.344087,17.5871,39.2683,-24.2537,34.4375,-0.0311703,1.85498,9.29001,-0.0532935,-0.0562293,-0.0337439,39.9677,4.66352,-29.2269,33.125,1.83985,-9.55442,1.41262,-0.00307204,0.0238069,0.0116726,-20.5285,16.5365,-13.7173,4
ironing,103.0,33.375,0.37411,6.16667,9.56976,-0.297863,0.577691,0.289908,3.69616,0.0946426,-56.7941,35.25,-1.10608,9.55861,-4.6166,-0.0481909,0.379945,-0.34484,7.94775,-54.778,-3.91644,34.125,9.67251,-1.83902,-0.908903,0.103986,0.0707966,-0.02069,-55.9525,7.65643,49.5031,1
transient activities,92.0,31.875,-6.64276,-1.23811,6.98796,-0.0243348,-0.00674036,0.00137365,23.2154,-4.56031,-28.2514,36.1875,-0.175556,9.63197,1.092,0.0398619,-0.0256428,-0.0361162,2.31374,-33.3495,-4.95361,33.75,7.03189,5.60948,-4.37809,0.0381407,-0.0176779,-0.00515052,-51.3378,1.75153,41.4805,3
transient activities,125.0,30.875,1.5605645454545456,-9.561065454545457,4.590002272727273,0.1841055181818181,0.1716208636363636,0.0878299318181818,-7.125561363636364,26.410554545454545,-10.00032909090909,34.0,-0.78166,9.74761,1.1968,0.0112272,-0.0499131,-0.0177937,20.1317,-24.4245,-1.84495,31.75,9.63943,-0.574493,-2.30631,0.0348806,-0.0134527,-0.00118079,-24.0109,13.3425,23.0086,8
transient activities,99.0,33.375,8.69864,6.00505,-9.58718,-2.83607,0.469526,-0.453649,-5.11643,3.11871,44.0233,37.625,0.37203,8.98761,-4.82029,-0.069399,0.0611561,-0.0758183,-19.8634,-43.1938,3.88994,35.0625,9.77938,-1.60999,-1.14077,-0.0101177,-0.0375416,0.025258,-46.5031,15.432,53.7172,2
vacuum cleaning,103.0,34.125,-7.30012,7.1341,9.18213,0.20123,0.00213142,0.206821,31.5604,-7.39685,-29.2483,36.6875,-0.471408,9.15714,-2.43543,0.106228,-0.428136,-0.102276,12.4949,-28.0177,3.9035,35.125,9.78543,2.72324,-1.74644,-0.179621,0.15383,-0.892684,-49.0955,-7.36223,-0.457871,6
ascending stairs,148.0,31.75,-6.03862,8.38523,1.73026,-0.738827,1.49316,1.00975,10.8386,-20.9796,-7.22402,36.75,-1.39443,10.9355,-1.60607,-0.384549,1.57587,0.225543,5.87742,-19.1246,14.9773,34.4375,10.1308,-24.5214,-13.3436,-0.923705,-1.13132,-0.561665,-28.819,-2.92862,18.0998,3
lying,86.0,31.1875,0.495138,5.80732,7.68691,0.0409481,0.0384025,-0.0105216,-32.0552,16.0949,-39.663,33.0,1.07242,2.49086,9.19177,0.0743082,-0.00430308,-0.0340392,38.3207,6.92044,-55.4679,31.625,-0.547612,-7.57606,-6.5736,0.0215135,-0.00778232,0.0264081,-14.2063,44.6292,-4.90667,1
transient activities,106.0,32.8125,-9.17576,3.32463,1.62336,0.0156774,-0.0774049,-0.068904,38.8124,-43.2426,-9.9832,37.375,0.378893,8.98916,-4.58785,0.0348788,-0.136488,0.00489562,-14.2896,-46.2601,1.15108,35.0,9.66631,-1.76116,-1.14099,-0.0387919,0.0237122,0.0336343,-45.6392,28.6472,44.8152,2
standing,72.0,32.9375,-9.12298,2.60853,2.20388,-0.104913,0.0108749,0.0242866,32.0476,-10.7589,-7.70683,35.5625,0.193677,9.73222,-0.605362,-0.0303387,-0.067702,0.00266288,-2.55044,-31.9707,-1.3959,32.3125,9.63534,-0.725404,-2.42119,0.00210543,0.00359347,-0.0341922,-2.41793,-3.88307,4.24092,7
lying,96.0,34.6875,-8.93431,3.13721,2.08946,-0.0474168,-0.0825149,-0.0322911,50.9774,12.4309,-5.7861,36.3125,1.31845,9.73317,0.0732676,0.0321387,-0.0561288,-0.0304412,2.41253,-39.2743,24.4839,34.0,9.64246,0.641465,-2.4296,-0.0175204,-0.0262789,-0.00774089,-37.3338,-50.1402,12.1144,5
transient activities,94.0,33.25,-4.68951,5.33967,-6.66799,-0.0796831,0.0487371,-0.0134347,14.9954,-19.565,16.3523,36.875,-1.62757,9.40112,-0.327514,-0.00271869,-0.0131765,-0.0123581,0.305901,-31.9839,-0.324269,34.25,9.66912,-0.16487,-1.34381,0.045959,-0.0145171,0.0114422,-24.4924,2.85516,-5.51568,3
transient activities,90.0,34.5625,-5.78257,5.64569,5.32266,-0.0202273,0.0272923,-0.130334,17.4522,-24.5118,-16.2489,38.125,0.845248,9.07378,-2.99212,0.0453578,0.0425409,0.0625684,-3.68823,-23.0888,6.85924,35.375,9.73563,-1.34173,-1.41301,-0.0334536,-0.0191172,0.000161726,-1.03877,-5.55697,26.0139,2
walking,99.0,31.5,-9.23654,2.90256,1.04657,-0.00416442,0.0787279,0.0846135,36.5616,0.287616,-15.6569,36.3125,0.863258,9.69746,0.142579,0.0122073,0.0129749,-0.00746579,9.69441,-27.0168,8.81348,34.8125,9.88275,0.0650528,-1.76753,0.0279696,-0.0439516,0.0103311,-27.9811,5.38061,6.40956,6
walking,103.0,34.4375,-9.17664,3.06908,2.74035,0.591234,-0.302936,0.476142,42.7875,-15.0546,-7.04638,38.0625,1.24594,9.98016,-2.40699,-0.292704,-1.45985,0.221822,-10.8453,-41.0833,2.54624,33.8125,9.54379,-2.23042,-4.03355,-0.864537,-0.308992,-0.449028,-32.2643,1.14719,26.3977,5
vacuum cleaning,93.0,34.4375,-3.2089,6.95238,5.20286,0.538626,1.02046,0.254128,10.768,-27.732,-14.9341,38.125,1.77668,9.17884,-3.71128,0.129041,-0.274062,-0.132254,-5.98171,-22.4554,7.07045,35.3125,9.59284,-1.4949,-1.14339,-0.0433812,-0.0952251,0.0640164,-2.36586,-7.37262,25.0152,2
running,167.0,33.8125,-1.13582,11.9916,6.21758,0.0816172,-0.738507,-1.95611,17.4315,-38.4105,-27.8505,36.375,2.02944,13.5374,0.577155,-0.559527,-1.38222,0.728118,-3.88267,-40.428,-6.43331,34.0625,9.57054,0.146742,-2.23432,0.794739,2.1737,8.43359,-40.381,-8.10891,24.6779,5
walking,97.0,31.5,-11.0399,1.88689,0.44567,-0.906588,-1.38486,2.51148,33.765,10.4826,-24.7681,36.375,0.382302,7.69912,-0.479174,0.153395,-0.26214,-0.252677,21.4903,-27.1975,11.9987,34.875,9.19813,-0.335079,-3.39283,0.194072,0.15811,-1.62032,-18.491,-5.31123,-9.71351,6
transient activities,111.0,34.4375,-9.86977,2.81576,3.50057,0.0330967,0.138721,-0.0967946,27.0003,7.73858,-28.6747,38.0,-0.017747,11.5055,-0.189026,-0.0875844,0.613542,0.312258,19.7634,-19.2625,7.85248,33.5625,11.8582,-3.86658,3.94979,3.60449,-0.866436,-0.530721,-34.1627,8.61901,-4.11151,5
standing,82.0,34.0625,-8.84202,4.44681,0.12357,-0.00725697,0.0414598,-0.0503256,23.2778,-25.5191,1.95861,37.4375,0.849149,9.10355,-4.15377,0.0360539,0.0133126,-0.0196157,-9.74188,-25.1184,6.51949,34.75,9.83713,-1.71955,-1.71834,0.0226544,-0.0473736,-0.0212245,-18.9549,-16.646,36.4396,2
Nordic walking,122.0,30.75,-1.12454,-5.56126,3.62134,-0.598079,0.543172,1.73129,9.5663,28.3908,-43.0689,33.8125,0.438088,6.45243,-1.05493,-0.0831537,0.130176,-0.6026,-10.7915,-39.1373,-10.2958,31.8125,1.64384,2.27556,-1.13254,-1.94007,-0.910333,-2.67419,-41.9126,20.8601,-0.749006,8
ironing,88.0,34.125,-5.15121,2.66559,7.80536,0.105587,-0.0140049,-0.0414507,6.65484,-5.58898,-55.7177,36.5625,0.0140671,9.83944,-1.53827,-0.0123711,-0.0290636,-0.0347637,-0.724986,-38.604,-12.2029,35.125,9.33815,-0.713465,-3.65918,-0.0363582,0.0492693,0.00237089,-28.4243,18.1441,48.5173,6
sitting,74.0,32.0,-1.44179,3.36785,8.97469,-0.0134291,0.0122182,-0.0154195,5.08341,-9.80109,-29.7204,35.0,0.564411,9.26573,2.9652,-0.0269164,-0.0200341,-0.0365037,4.52916,-18.5364,-7.71928,32.9375,9.48741,0.649934,1.31195,0.0377211,-0.0574477,-0.00237364,-14.4523,-4.42986,18.2138,3
transient activities,96.0,33.6875,8.07609,2.58202,5.84849,0.44533,-0.0560965,0.333469,-41.8696,12.697,-27.32,37.75,0.684826,8.79153,-5.82073,0.162094,0.5516,-0.235086,-19.9845,-44.2594,10.8736,35.125,9.66473,-0.1529,-2.81034,0.0928936,-0.0288409,-0.382438,-43.1852,19.0546,54.5951,2
Nordic walking,132.0,33.0625,1.7147,9.94577,0.609536,0.46347,-0.172926,-0.178945,13.9619,-36.3568,-17.4886,38.375,1.05589,8.46427,1.62147,0.0200251,0.470949,0.0421003,2.45194,-32.5522,8.08949,32.5,19.3726,1.9703,-5.23228,3.79862,-1.4525,5.51334,-39.3422,-0.456137,17.8648,7
vacuum cleaning,95.0,33.125,-0.814725,5.77067,-1.762,-0.625573,0.612414,-1.58666,25.0548,-19.5425,-5.40396,36.625,-0.777099,9.14917,-3.75745,0.432432,0.536998,-0.494709,5.46994,-25.7626,9.20099,34.0,9.73435,0.103649,-1.73071,0.116417,-0.114584,0.150119,-1.24443,2.79498,29.0754,3
transient activities,112.0,32.375,-11.7309,6.05539,-0.733364,-2.0073,1.92508,1.16673,39.865,-37.4845,-7.42936,34.1875,4.9582,8.92713,-0.438987,0.501217,1.77805,-0.340042,-20.6379,-36.4538,-9.11054,32.875,9.90804,0.475962,-0.959444,0.435811,0.0521421,-0.540687,-51.459,14.9477,59.3611,4
cycling,124.0,29.1875,-5.8518,-0.156366,5.61061,-0.866807,-0.0824883,-0.232672,10.72,-35.1199,-49.5003,33.625,-1.09688,1.20927,-8.69372,0.00280605,-0.264283,-0.348585,-9.367,-32.608,42.0627,32.5625,17.2528,-4.11501,-2.32203,-0.682471,0.372574,-0.7478,-46.855,25.3937,26.9663,2
running,133.0,28.875,-15.0094,23.194,3.58576,4.2468,-1.21227,-1.57775,1.5304,-29.4304,-18.8971,32.25,-2.5099,17.417,-18.065,3.87316,-1.28367,0.247475,1.88999,-28.6859,-0.173202,31.8125,11.9817,-3.12791,-7.59181,-3.63356,0.821319,-1.86364,-33.1194,-12.5967,9.73863,2
walking,115.0,31.25,-8.31598,0.144064,3.10949,1.05567,1.51662,-1.59401,38.4712,10.4909,-7.97995,35.6875,0.712653,7.65754,-0.898984,0.191231,-0.794065,0.020179,14.0162,-21.7745,22.9142,33.5,0.645152,-6.2287,-0.433984,-0.794378,-0.683222,2.28189,-8.48252,-29.6143,-4.96965,4
walking,110.0,34.8125,-5.29386,2.76175,1.49097,-0.177982,-0.0660824,2.22933,44.2837,-6.20968,-22.0635,38.375,0.185597,4.08577,-0.35483,0.0189327,-0.308735,-0.304977,4.91353,-40.0004,14.0711,34.4375,9.45505,0.376549,-2.39129,-0.132061,-0.198429,-0.567375,-36.5537,-10.3727,20.2972,5
running,180.0,30.875,-7.26067,-45.8552,-1.6459,3.63267,0.0390282,-4.9003,12.3992,34.5739,-35.2382,34.1875,-3.47352,18.0293,-0.427722,0.0749323,0.301366,-0.512496,-2.6535,-42.1471,-9.09408,31.6875,0.961464,-40.4105,5.2997,-0.308348,0.21366,5.33855,-45.8009,-3.35602,16.7108,8
transient activities,105.0,33.25,-12.6735,2.43725,1.1506,0.404848,-0.416297,-0.112363,43.1208,-41.5361,-1.33449,37.625,1.11493,10.2979,-5.58551,0.250936,-0.264563,0.0659309,-18.1387,-43.8092,3.79271,35.0625,9.70193,-1.68481,-1.21828,-0.0709468,0.0493787,0.116503,-46.5513,18.3148,52.7581,2
ascending stairs,124.0,35.0625,-5.34993,3.44893,1.91118,-4.42722,0.462792,-2.23776,41.9981,-6.72384,-45.1526,37.8125,-0.376636,5.05321,-7.88002,0.252125,0.617527,-0.552919,25.7538,-55.0842,13.5967,34.125,16.1846,4.28472,-7.2474,3.10857,-0.839868,-3.72921,-44.6284,-7.23185,-11.647,5
descending stairs,150.0,32.125,-8.72958,6.84143,0.694487,5.17844,-1.6823,-1.62922,16.0933,-26.7131,-50.5128,36.75,0.387985,9.71235,2.10869,0.462539,-0.480144,-0.0557877,6.85126,-34.7549,-14.4477,34.375,18.9562,-5.92924,0.0220673,-0.801292,-1.04081,-1.92407,-43.1614,11.1115,29.2594,3
Nordic walking,125.0,30.25,-8.12708,6.15452,0.782804,-0.250173,-0.209238,-1.4796,43.144,0.569549,-9.32913,35.1875,-0.62779,11.6981,-5.38931,0.519729,0.0154331,-0.377973,-0.479514,-22.1974,32.0376,34.0625,16.2063,20.6583,0.909375,-2.13661,-1.25464,3.46248,-37.6123,11.3317,22.7798,2
ironing,86.0,34.0,-5.81935,4.51984,6.67297,-0.101486,-0.0447223,-0.502219,24.1662,-11.3563,-45.0884,36.375,-3.01358,9.04608,-3.3717,0.00843752,-0.182895,-0.115071,9.30181,-36.9263,2.80382,35.0625,9.58845,-0.0105936,-1.57714,-0.35951,0.242524,0.115192,-24.438,13.2912,42.0127,6
lying,91.0,31.5625,7.36399,1.33926,6.26537,-0.00538007,-0.0285813,-0.0141246,-2.9867,23.3183,-55.5415,33.3125,0.657619,-0.14098,9.58002,0.00898823,0.0214628,0.0146602,46.3082,13.493,-45.7767,32.0,0.192386,-7.31213,-6.91495,-0.0462325,0.00517845,0.0239881,-19.5613,44.8824,-1.39436,1
transient activities,103.0,34.375,8.63393,2.18689,4.58809,0.0458114,0.0476742,-0.0109944,-7.01543,-11.6142,-37.2395,38.1875,0.786525,9.64245,-2.45294,0.0620313,0.0623591,-0.0457667,23.7989,-23.077,2.98609,35.4375,9.64775,-0.881133,-1.95702,0.0328256,-0.0232669,-0.0130943,-13.2071,6.72476,-2.84357,2
vacuum cleaning,89.0,35.375,-6.27204,6.33285,9.58511,-0.411695,1.23781,-0.107232,27.2874,-24.1779,-40.8175,37.6875,1.15637,8.5299,-5.30797,0.871643,0.679226,-0.749308,-6.68349,-39.1853,13.8448,34.375,9.47056,0.61087,-3.20296,0.143747,0.308119,-0.105011,-57.3885,5.61329,24.4604,5
transient activities,145.72727272727272,27.9375,-8.38131,3.76342,0.479163,0.154396,-0.149904,-0.537367,37.4451,1.737,-4.77521,33.1875,-0.692086,10.0252,-2.24864,-0.130797,-0.159773,-0.0304831,3.31871,-23.1792,17.0666,33.875,9.57707,1.39971,-2.24203,0.16601,0.434812,-2.30864,-26.2912,-6.15064,10.2584,6
ironing,79.0,33.8125,1.20721,3.12969,5.8977,1.1055,1.13424,2.56644,-21.257,-27.4292,-55.6599,36.6875,1.79229,9.03186,-3.16843,-0.00842267,-0.261199,-0.445141,-17.0694,-35.5634,0.0745211,32.8125,9.06519,-1.12689,-3.96813,-0.085951,0.0133354,0.0444413,-27.4663,-1.59368,51.2384,7
ascending stairs,124.0,34.3125,-4.71215,-0.884413,1.58896,0.11978,-1.27268,-1.34281,71.6022,-28.5101,-13.0598,38.125,-0.718203,6.49948,-0.224165,-0.146007,1.31255,-0.578034,-22.7133,-23.5346,42.1273,34.25,7.26193,-4.54658,-2.26746,-0.286008,0.362061,1.4856,-56.9674,26.9507,-23.644,8
Nordic walking,127.0,30.125,-8.64701,4.98685,1.27929,-1.18222,-0.298817,4.98539,25.632,-16.6435,-38.8249,35.0625,0.486999,2.60766,-1.62236,0.265243,-0.257239,0.13874,23.7414,-32.7713,12.4106,34.0,9.50438,-1.13753,-2.99882,-0.491434,0.111691,-0.722173,-48.7715,15.8836,8.56131,2
cycling,119.0,29.375,-3.78273,-0.174764,5.37225,0.756553,0.349362,-0.168284,43.7895,-8.18301,-25.5171,34.0625,-0.555547,0.523242,-9.6497,-0.421759,0.0167476,0.279541,2.83417,7.679,39.8506,32.875,6.21467,3.59278,1.45307,-0.698089,-0.327228,2.44775,-31.5616,-19.1745,10.7697,2
sitting,63.0,31.625,-1.89792,6.35283,7.18737,-0.0363163,0.0328947,-0.00920171,7.4582,-19.5099,-25.0578,34.625,-0.121334,9.80614,-0.959798,-0.0336887,-0.0184251,-0.0358071,6.5953,-25.2165,-0.10158,31.375,9.26253,-1.28316,-3.57924,0.0270937,-0.0179509,0.00742166,-5.33195,-7.19292,11.3261,7
standing,87.0,32.1875,-9.12997,4.27316,1.65934,-0.716801,-0.585477,-1.78111,25.7174,-19.468,-22.6543,35.25,0.162155,9.78022,0.904027,0.236782,-0.374256,-0.0463509,3.49336,-27.1916,-10.566,33.125,9.8924,0.850102,-0.267314,-0.0287254,-0.00681613,0.0247094,-7.8011,-4.39936,23.2347,3
standing,93.0,32.4375,-8.21693,3.10341,3.17797,0.331495,-0.0590713,-0.15109,31.5664,-14.0901,-10.2804,35.5,0.401981,9.66913,1.29594,-0.181551,-0.248773,0.122626,-6.14002,-28.0108,-8.01654,33.375,9.70705,-0.279334,-1.30412,0.0114887,-0.0798872,0.0138894,-6.25014,-2.9144,23.6091,3
standing,86.0,34.625,-1.53466,-8.11364,2.12279,2.64628,-2.60058,-6.35708,-0.615965,25.9581,-40.0152,37.625,-0.0353806,9.7416,0.668249,-0.175126,0.204998,-0.0658806,-5.42334,-37.1517,-1.95049,34.4375,9.12191,-0.589701,-4.70408,0.0240047,0.0208607,-0.0190056,-37.4613,-2.37205,11.2075,8
running,173.0,28.0,-8.81365,3.35563,1.16684,-0.173473,0.0204457,-0.0389696,32.8501,-11.7979,-12.8202,33.1875,0.79456,9.80355,-0.904476,-0.233458,0.109984,-0.00565654,-20.6037,-41.5121,16.8632,33.8125,9.75668,-0.0442869,-2.23122,0.0109041,0.0375556,-0.0212467,-47.2288,-46.1747,-32.8858,6
walking,102.0,32.875,-5.85846,1.69649,0.677875,-0.770236,-0.127667,1.20519,36.9338,-7.0559,-18.5002,37.6875,0.970628,7.06137,0.153093,0.0581595,-0.178663,-0.15089,5.8286,-29.5769,3.58396,32.25,9.64098,0.576534,-3.77985,-0.709639,0.409165,-1.11383,-36.2543,-11.3165,10.9385,7
ironing,105.0,33.5625,-6.48365,1.98187,6.55612,-0.761238,0.836744,0.246261,-6.96326,-4.6191,-63.4387,35.5625,-1.26412,7.58351,-7.20735,-0.0797965,0.194542,-0.0660095,-2.13857,-42.9653,15.0259,34.25,9.4174,-0.715224,-3.50399,0.039806,-0.0185863,-0.00830561,-32.9541,15.7989,49.7806,4
vacuum cleaning,136.0,33.6875,-6.72825,-7.49137,-0.728191,0.273713,0.17383,0.0503685,35.1974,26.2183,-4.79543,35.75,-1.69515,7.17697,-6.28453,0.227679,-0.612178,0.409488,11.7366,-44.8652,22.3861,34.6875,10.5249,-0.711926,-0.0967753,0.111973,-0.739354,1.98756,-14.3202,-5.32317,-23.3865,1
transient activities,107.0,31.0625,-3.67335,-5.24176,7.39233,-0.0855335,0.103899,-0.0108947,30.4347,27.7847,-26.1786,35.625,0.871762,9.88754,0.413162,0.0625141,0.00530753,0.00915808,16.7732,-32.7003,14.2532,31.625,9.02402,-0.365032,-4.2434,-0.0213231,-0.0101334,-0.0288684,-29.9525,17.117,23.6925,8
transient activities,151.0,33.5625,-4.58063,6.74259,5.99125,0.80468,0.0205682,-0.0236838,27.1444,-27.1398,-67.1932,37.0,-1.27818,9.34636,-2.68298,0.0273749,-0.108266,0.0242117,16.8741,-71.666,-10.423,34.875,10.0241,-0.0582374,-0.723401,0.0473487,-0.0539811,0.046524,-117.995,9.73126,16.1172,1
lying,69.0,31.375,6.91477,2.70724,6.10008,-0.0131089,-0.00193312,0.0167162,6.50459,1.84773,-45.0031,33.6875,1.30527,-0.255964,9.59213,-0.0270289,0.00688811,-0.0308689,31.5951,9.01073,-27.3742,31.75,0.766649,-9.95869,0.593738,0.00993958,0.00536333,0.00286872,-16.1119,18.6011,-8.88207,3
Nordic walking,114.0,30.5,-2.00901,1.51396,0.62069,-1.01742,-0.10733,2.9908,39.3525,-26.2894,-8.93977,35.875,-0.441544,3.59455,-0.906688,0.207082,-0.62288,-0.00586912,9.6135,-30.5208,32.5215,34.625,10.3674,-1.15431,-1.60064,-1.51856,0.0334119,-0.338043,-31.3788,-18.8997,10.3971,6
standing,82.0,34.5,-10.2274,-1.20049,3.81666,0.766788,-0.0607778,-0.0978305,40.4453,-4.8905,-25.8695,37.5625,-0.0330931,9.74212,0.74573,-0.0330791,-0.241461,0.0693534,-5.55486,-37.2762,-1.66869,34.3125,8.97819,-0.286288,-4.55308,-0.206014,0.00508851,0.155119,-36.6656,-3.56917,11.6372,8
standing,89.0,35.1875,-9.20989,3.14625,2.85505,-0.232518,0.204091,0.586201,31.5056,-16.0767,-23.4213,37.125,0.568558,9.95539,-0.831622,0.0858693,0.307664,0.0879786,9.91098,-31.7792,-7.65548,34.375,9.7854,-0.242803,-1.18778,0.138932,0.101575,-0.0620595,-26.193,19.7586,22.568,5
transient activities,137.0,30.1875,3.70881,6.96551,4.26727,-1.32077,0.496242,0.805359,-12.1779,-42.795,-9.3944,33.5625,-0.068379,9.65011,-1.73275,0.00777351,-0.0685378,-0.027915,-12.4392,-36.713,13.4498,33.0,9.68393,-1.75561,-1.83545,-0.00593611,-0.0379441,0.00320854,-48.8469,-17.2413,10.808,1
descending stairs,128.0,32.125,1.13022,6.14629,-8.93127,-0.0635063,0.575403,-0.300379,17.5515,-33.8936,2.04966,36.6875,0.971551,9.55658,-3.9207,0.125409,0.201621,-0.208308,24.2608,-23.3671,20.7665,34.75,9.68472,-1.60374,-1.83639,0.189896,-0.159634,0.13571,-22.9622,7.28517,-2.51025,2
walking,118.0,33.1875,-10.2308,-2.30941,2.85816,-1.81597,2.09562,3.9531,39.522,12.8994,-33.5869,37.5625,0.959961,6.2022,1.16244,0.0614258,0.183622,-0.527125,-5.12475,-37.281,-12.1,33.1875,1.78419,-0.145658,-2.31235,-2.57262,-1.34248,-3.00604,-43.2101,19.3999,6.05606,8
ironing,89.0,34.125,-4.81541,3.76018,7.46032,0.0672933,-0.0207801,0.039719,13.0362,-5.05498,-46.9413,36.5,-0.389181,9.84437,-1.0035,0.0341492,0.0296088,-0.0501232,3.57156,-36.0569,-9.64937,35.125,9.82598,-1.11857,-0.911801,-0.0488025,0.0327115,0.00769703,-36.1319,16.4451,40.5496,6
transient activities,120.0,33.8125,-0.175829,9.24052,0.699058,1.866,-0.806612,-1.47877,22.2344,-27.3625,-10.8671,36.8125,-0.824148,11.686,-1.71434,-0.162934,-0.364718,-0.345918,7.77956,-23.7341,20.3439,34.0,10.8341,-1.99889,-0.81882,-0.105243,0.332759,0.416048,-33.7173,-3.32494,13.3493,5
transient activities,111.0,30.75,2.56098,9.0818,2.31857,-0.00867974,-0.0358341,-0.122194,-4.40562,-25.6154,-9.5297,35.75,0.260819,8.87578,-4.70578,-0.0364606,-0.131108,-0.0208622,-0.0804539,-20.9485,16.2328,34.1875,9.57016,-1.83052,-1.87475,-0.0530966,-0.0208256,0.00245722,-28.7272,1.48717,9.23404,2
cycling,132.0,31.125,-3.05088,3.48822,8.2959,-1.30348,0.110578,-0.20039,51.102,-5.59032,-35.9917,35.75,0.251095,8.94009,-6.33245,-0.238404,0.1238,-0.208659,19.194,-28.9432,35.6813,32.0,9.16006,-8.72183,0.787907,0.103235,-0.143728,0.330991,-27.0494,39.0958,16.7275,8
ironing,86.0,34.4375,-4.11208,2.0467,7.39966,-0.00819696,-0.241972,0.102618,-12.0571,-40.0813,-43.275,37.8125,0.0387948,8.80274,-4.47724,0.0226398,-0.190788,-0.0228538,-12.0602,-33.6615,8.31145,35.125,9.68349,-1.42394,-0.60265,-0.172527,0.212641,0.289494,-40.233,5.19929,34.7424,2
cycling,133.0,29.5,-6.11389,4.85642,10.0928,-0.335521,1.10307,-0.489112,-5.48989,-24.9117,-43.1089,35.1875,0.261481,3.34682,-9.33431,-1.17767,-0.0575536,-0.423306,-8.53729,-31.2702,32.9635,34.25,15.516,-0.0522324,-1.01442,0.272345,-0.289482,0.619957,-40.0813,20.59,25.9222,6
lying,82.0,31.5625,7.17291,1.41593,6.18528,0.00272096,-0.000256039,-0.0231316,-2.96199,24.7194,-54.6008,33.375,0.773306,-0.0657716,9.62059,0.0399127,-0.0180173,-0.011904,46.5657,12.5882,-45.5289,32.0,0.0790084,-7.3111,-6.95471,-0.0374457,-0.0376208,0.00391638,-19.8898,44.1266,-1.77107,1
lying,70.0,33.3125,4.96361,-0.559226,8.23717,-0.0194622,0.0214101,-0.0118591,14.0558,24.8032,-39.1193,35.4375,0.537653,-0.969775,9.46438,-0.00151075,-0.0113017,-0.0221751,37.5607,16.0986,-26.6295,34.5,-0.126244,-9.54222,-3.23837,0.0222624,-0.00960615,0.0114259,-16.9424,26.2957,-5.34793,6
rope jumping,196.27272727272728,30.8125,-2.6156,-2.24955,3.51085,0.550034,3.25443,0.106631,15.1839,40.5155,-21.2381,34.125,0.216714,2.15614,-1.70323,0.660422,0.274979,0.237914,22.408,-40.6312,0.0959644,31.6875,6.6343,-6.92407,1.09815,0.147961,0.134434,1.76819,-33.3385,15.3949,37.2985,8
transient activities,121.0,33.0,0.630784,1.94906,9.12599,-0.00856638,-0.0267388,-0.0959953,12.7142,-12.3556,-41.1222,38.3125,1.78703,9.49974,-0.808066,-0.127102,-0.0394252,0.0118029,-2.58754,-36.24,12.5875,32.4375,9.49835,-0.603399,-3.31091,0.0296343,-0.0361923,-0.0872713,-18.9047,13.605,23.7355,7
Nordic walking,127.0,30.5625,-6.01912,9.45055,2.07334,0.153994,0.387787,-2.24803,14.5385,-37.4295,-14.0402,35.5625,-1.2491,13.8424,-5.98835,0.0772676,-0.379045,0.280195,-0.536653,-35.0333,6.27804,34.25,12.0267,-17.7325,-4.5679,1.21021,0.0340948,-3.80636,-20.8164,35.9003,22.2856,2
standing,81.54545454545455,32.1875,-4.54058,8.84417,3.44459,0.164236,0.113984,-0.257151,18.338,-21.5765,-28.4947,35.25,-1.53281,9.63962,1.57075,-0.0198048,0.205735,-0.0140663,9.91512,-25.6045,-12.0599,33.125,9.71538,0.89705,-1.23416,0.0298073,-0.037769,-0.0116628,-6.89525,-4.23006,24.7144,3
walking,121.0,33.0625,-6.69497,-0.476642,-1.21321,0.0785244,-1.69498,-1.67618,25.8183,14.4905,-46.9545,37.5625,-0.133014,10.0092,1.2077,0.2848,0.224833,0.175764,-8.42928,-39.4799,-12.6745,33.1875,12.6022,1.01278,-3.67501,0.614362,0.823593,1.60179,-45.866,-2.20496,13.0216,8
walking,100.0,32.875,-8.01191,1.03156,0.801811,-1.09782,-0.529592,0.464313,23.7483,-39.6133,-23.3941,37.625,1.47461,10.4196,1.4291,-0.0119983,-0.363141,-0.053009,-5.97418,-38.5373,-14.0728,31.875,12.6718,1.68763,-2.67515,-0.996341,0.761921,-1.64615,-37.0547,3.86323,36.8733,7
Nordic walking,125.0,30.8125,-8.10519,-14.5195,1.31472,0.150177,-0.226469,-1.6011,40.4887,22.3013,-0.969126,33.9375,-4.04176,13.7157,-3.79272,0.526094,-0.258002,0.124762,14.9052,-32.6437,25.9432,31.75,6.72383,-9.37917,-0.545043,1.23338,0.15445,3.00404,-37.3168,22.382,25.5043,8
walking,118.0,33.0625,-8.99228,-5.03942,-0.0776028,-0.523121,0.669508,1.86587,52.0235,-22.616,0.460998,37.5,3.86679,11.3132,1.08232,-0.0997632,0.333403,-0.426683,22.2707,-43.225,18.5813,33.125,17.2926,-21.021,3.57173,3.1408,-0.387202,-1.21514,-35.0713,3.91191,43.2627,8
cycling,118.0,32.9375,-2.32448,2.14948,7.73399,0.579566,0.374307,-0.151407,44.9177,9.13658,-33.7063,38.125,0.183156,5.59306,-5.74198,-0.33233,0.129075,-0.197364,15.4628,-11.2651,34.709,32.3125,13.7737,-0.622314,-4.27028,-0.191669,0.627033,-1.47278,-43.08,-6.75263,2.39922,7
ironing,88.0,34.75,-4.31739,-4.70699,7.22693,-0.527627,0.00737232,-0.253752,9.46729,4.68747,-52.1112,37.9375,0.0560595,9.57678,-1.38177,-0.0519087,0.1026,0.0798008,-17.204,-37.3579,-5.69741,34.6875,9.44402,0.798059,-2.85709,0.0886066,0.047246,-0.0674279,-42.5724,-17.7501,-7.37265,8
walking,114.0,31.0625,-11.7723,5.27044,4.77236,1.825,2.21249,-6.30685,20.0417,-33.6986,-24.3629,37.0,-1.12355,3.98267,0.473649,0.0739712,-0.614707,0.191158,-3.56304,-32.2838,-14.4798,34.625,9.18254,-1.22651,-1.14927,1.1329,1.03534,5.24528,-39.3504,8.3917,24.4956,3
transient activities,130.0,33.75,1.25944,9.82543,-0.513012,0.019352,0.277173,0.0186299,-18.6023,-31.4306,7.4666,36.5,0.348395,9.57298,-1.80239,-0.0281771,0.196832,-0.0196534,-21.3596,-35.6278,0.690433,34.8125,9.65636,-0.921672,-1.64796,0.137938,0.0721256,-0.365618,-41.1784,-2.12738,15.4863,1
cycling,106.0,33.0,-4.8933,-0.746626,8.32108,-0.0326793,0.0514658,-0.0352938,40.2845,-1.6661,-41.6365,38.25,0.47795,9.40803,-3.85172,-0.046016,-0.0419737,-0.0118992,0.952369,-38.8359,26.7273,32.375,9.16253,3.5873,-0.137427,-0.043537,-0.0168692,0.0230007,-31.2699,-14.8012,5.00308,7
cycling,134.0,29.5,-10.8514,5.51493,11.6746,1.32735,0.803594,-0.524691,16.875,-12.3344,-48.3485,35.1875,-0.845273,4.83506,-6.9585,-0.309944,0.0417139,-0.453141,-1.28575,-36.0454,27.1189,34.25,13.0371,5.24097,-1.03411,0.317854,-0.0781618,-2.42176,-44.6126,11.5459,25.7749,6
running,171.0,30.5,-2.77202,20.3515,1.96975,1.66541,-0.862271,0.131191,62.8221,-38.2462,0.905637,33.75,-2.12817,19.1216,-5.28574,-0.631216,-1.98558,0.892025,-4.23672,-53.6221,48.4862,33.0625,1.47067,0.327365,-4.20939,1.46786,-0.787398,3.23451,2.70801,-71.8948,-15.3238,1
transient activities,93.0,31.25,-2.20764,9.18275,0.93823,0.235635,-0.400015,0.00878528,24.3951,-24.4965,-6.42693,36.25,0.0245997,8.77065,-3.66425,-0.918771,0.511743,0.20993,4.94424,-22.4677,19.3299,34.8125,9.28078,1.37335,-3.44118,0.149996,-0.313624,-0.733139,-29.8844,-5.84647,8.96887,6
cycling,124.0,29.1875,-7.01482,1.11436,6.66655,-0.00596747,0.315543,0.271053,15.701,-37.8927,-50.976,33.625,-0.0497597,1.38954,-9.37231,0.0494868,0.28462,0.330784,-15.4229,-30.3897,53.7413,32.5625,2.55397,0.327046,-0.339325,0.993833,-0.320148,0.339557,-53.3683,-10.3387,18.2215,2
vacuum cleaning,92.0,34.125,-4.08406,11.6244,0.786424,0.988955,-0.119451,0.266662,18.7125,-30.9002,-14.9067,37.1875,-1.57911,-0.986276,-10.6314,0.130592,-0.0840269,-0.15927,4.84722,-1.71938,37.119,33.0,9.11777,-2.245,-1.9154,-0.18056,0.098747,0.252956,-5.59558,34.1402,8.86609,7
cycling,115.0,30.6875,-4.57071,5.30593,6.57356,-0.937893,-0.797442,-1.23517,57.709,-28.2772,-31.2743,34.8125,-1.08199,10.3079,-5.1607,-0.146049,-0.429116,-0.498597,-9.3938,-35.2457,41.7224,31.875,6.42015,-3.22644,-0.547751,-0.789762,-0.731963,-1.38627,-45.9736,23.107,-6.01369,8
Nordic walking,128.0,34.8125,-0.0906747,7.81296,2.36011,0.265741,-0.00121795,-2.08365,5.10176,-44.5686,-14.5337,38.5,1.09259,2.87696,-0.489353,-0.0219349,-0.536276,0.159778,-2.62397,-39.9518,-12.9135,34.3125,5.78742,-1.2734,-2.10994,0.979219,1.25475,5.05,-42.8719,-7.48396,19.8462,5
transient activities,106.0,34.4375,-18.9514,-3.58488,1.07688,-1.96101,0.266814,-0.119539,53.4811,8.5771,-1.6996,38.125,2.42075,18.2424,0.49151,-0.0267743,-0.360003,0.194,20.2215,-49.5703,-7.34173,34.4375,-7.40083,2.15584,1.86261,0.42654,0.112028,-1.15774,-16.8812,46.6637,4.5569,8
walking,102.0,32.875,-14.4905,3.26533,3.04496,-0.0928828,-0.318464,0.892025,41.0883,25.7319,-18.8387,37.6875,2.5174,10.3933,-1.95937,-0.546944,0.0482682,0.322295,12.9474,-34.7594,21.7115,32.1875,-3.67643,5.07966,-15.0196,1.31606,-0.341185,-3.11009,-46.6611,-6.54095,13.5911,7
ascending stairs,151.0,32.625,-8.92256,4.04909,2.24051,-0.359613,-0.00257192,0.902917,76.3236,8.36273,16.2342,35.375,1.39047,9.72323,-1.35807,-0.338528,0.73237,0.430872,12.4509,-52.9172,14.0559,33.375,9.03225,4.38586,-4.85165,-0.355631,0.31438,1.22028,-28.5571,-9.49029,18.1969,4
lying,72.0,34.1875,6.41211,-2.13949,6.76319,-0.0300939,-0.00691412,-0.00121397,-40.1442,-6.29034,-15.8553,37.25,1.07111,-0.595167,9.43411,-0.021315,0.00855127,0.00326377,34.6588,14.6605,-28.8976,33.6875,-0.9114,6.48231,-7.55213,-0.0265007,0.0115247,0.00125512,-14.5663,8.79485,37.6558,8
running,175.0,28.0,-7.98614,35.8341,-2.35571,-0.104688,-3.91308,-1.03073,46.4165,6.83487,-15.979,33.1875,-12.9402,23.7405,-6.77442,-0.0814619,-3.06129,0.595868,16.3922,-20.1968,33.4971,33.8125,0.665062,5.19004,0.730223,0.0611966,-0.516286,3.70757,6.35134,-32.5507,-7.60887,6
descending stairs,151.9090909090909,33.5,-9.42227,2.41249,1.23788,0.241935,0.0250795,0.0443159,40.2105,19.5712,-22.7365,37.75,1.56267,9.84011,-0.697074,0.0288078,-0.0114677,-0.0471048,15.0135,-25.6698,12.932,32.375,9.45082,-0.638239,-3.65849,0.0311434,0.00219401,0.00525802,-27.2762,-22.8894,-7.02921,7
standing,70.0,32.9375,-8.82522,2.90803,2.01489,0.000636017,-0.0433037,0.0239162,31.901,-9.75754,-6.66275,35.5,0.383505,9.88198,-0.641131,-0.0403567,0.00553726,-0.113476,-2.55743,-31.9709,-0.972939,32.3125,9.56599,-0.726536,-2.22895,-0.0535921,-0.00874426,-0.00845912,-2.92107,-4.3738,3.95606,7
transient activities,144.0,32.1875,1.55198,-1.53863,10.2677,0.105032,0.359795,-0.521558,9.03557,29.6615,-41.1071,35.625,0.796354,9.48278,1.76834,-0.256005,-0.531357,-0.241657,13.825,-29.8468,-20.3296,33.5,9.39107,-0.490067,-3.15836,-0.157645,0.0534591,-0.435892,-34.9761,30.3649,21.6738,4
vacuum cleaning,98.0,34.4375,-9.10513,0.661974,0.940632,0.194158,-0.266627,2.29958,27.1166,2.45478,-24.4014,38.0625,0.418745,8.34971,-4.46889,0.0912718,-0.204052,0.473981,6.69628,-25.4853,11.0586,35.3125,9.07134,-2.71983,0.479622,-0.24307,0.174147,-0.0986203,-4.15792,-4.32788,16.3978,2
Nordic walking,124.0,33.0,0.537297,8.22097,1.8678,0.228458,-0.0624418,-0.746654,40.6548,-46.8373,-12.3611,38.3125,0.787368,7.66572,0.341413,-0.0292299,0.375079,0.104619,-1.2831,-53.319,19.6028,32.5,14.1653,1.43438,-5.35953,2.75709,-1.87828,5.09855,-44.3619,-26.8807,9.50967,7
running,175.0,28.125,16.2699,0.726085,0.704713,2.03061,-5.62697,0.0347901,30.7227,-16.1559,-18.8261,33.25,2.90663,0.337731,-2.03579,-1.17624,-1.47859,1.21174,17.2452,-21.1104,13.9086,33.875,9.03825,5.47741,5.638,2.67122,-2.18121,8.74114,-29.4843,-19.3884,7.7095,6
running,167.0,33.8125,-8.81067,1.50063,1.63499,-1.77009,1.17116,3.8804,-4.82662,-33.2558,-34.5295,36.4375,-1.62413,7.09767,-1.28799,-0.486382,1.58047,-0.635285,-3.33098,-39.9297,-9.11139,34.0625,20.0836,-5.05239,-1.28386,-1.96439,0.1111,-0.694546,-42.3841,2.42098,25.226,5
rope jumping,131.0,28.375,-2.23964,3.29966,-16.2078,-4.19826,3.94039,6.11816,34.396,-31.0855,-4.59379,32.0,-0.372427,-1.83489,-1.93325,-0.711832,1.06658,-0.420088,-18.1166,-31.0912,18.1518,30.25,4.95782,8.94134,-1.64159,1.40026,0.741695,-0.252035,-37.1682,-6.14728,33.6061,2
ascending stairs,147.0,33.3125,-6.21445,2.91682,1.0533,-1.36717,0.90752,-0.401107,49.3251,-16.1733,-44.0603,36.75,1.28463,9.04815,-1.00931,0.0564675,0.585464,-0.254917,28.2926,-47.0475,8.35159,35.0625,10.1843,-0.991529,-2.7998,-0.569548,0.109312,-0.606603,-60.8198,-1.88441,-0.221805,6
descending stairs,116.0,32.6875,-6.80217,1.88606,8.2836,-0.586491,-0.39598,0.523769,41.2849,-24.1768,-35.4654,35.5625,0.139556,16.3605,-0.473004,-0.072868,0.0320869,0.112726,-26.9617,-42.0303,-3.05969,33.5,16.6316,-6.31495,2.54753,-1.21677,-0.406388,-1.82153,-64.8329,3.38534,16.2105,4
sitting,63.0,31.6875,-1.78401,6.42783,7.18883,0.00937615,0.0304401,-0.00617739,7.20678,-19.6202,-24.5317,34.6875,-0.270561,9.73209,-0.846098,0.0249162,-0.0130129,-0.0168232,6.84841,-26.0006,0.891664,31.375,9.21941,-1.31929,-3.7724,-0.0188745,-0.0178055,0.0183304,-5.32844,-7.06268,11.8933,7
cycling,134.0,29.4375,-5.01876,9.21406,14.636,2.66471,1.45092,-0.0793916,9.91203,-24.1209,-43.5385,35.1875,-0.15534,2.83936,-6.62975,-0.302982,-0.0896346,1.18153,-7.25045,-34.0205,27.7709,34.25,6.65661,8.34532,0.309011,-0.0360727,-0.129067,1.17443,-39.3806,-7.51717,23.9716,6
sitting,81.0,32.875,-2.63148,5.15233,8.06564,0.0378527,0.00275081,0.00249224,9.80975,-18.6428,-25.3303,35.0625,0.50344,9.68598,-1.72251,0.0318198,-0.0276416,-0.0562805,3.29342,-23.4216,3.24936,33.8125,8.76149,4.57548,0.0452751,0.0138744,-0.0334966,0.0277223,-2.28889,-5.50372,24.3834,4
transient activities,105.0,33.25,-8.69805,3.98081,3.28326,-1.15069,0.14332,0.307363,55.7091,-25.3383,10.8474,37.625,0.985443,8.61021,-4.65307,0.081553,0.659737,-0.342375,-23.4735,-42.0272,11.6817,35.0625,9.67675,-0.384566,-2.3457,0.206288,-0.129828,-0.119194,-42.5717,9.49427,58.4491,2
transient activities,121.0,29.0,7.84323,-3.72411,4.78863,-0.216044,0.0606673,0.500733,-20.7397,-0.0139275,-22.7227,32.875,-0.136431,9.56819,-2.74046,-0.0653916,0.337529,-0.217045,4.79574,-24.4855,18.631,32.0625,9.61395,-1.02337,-3.11417,0.0963468,0.0436377,-0.00363458,-18.4296,5.89599,15.5096,2
ascending stairs,164.0,33.75,-13.934,2.68051,1.78519,-2.15713,0.725115,3.6345,94.1572,-36.1602,-6.4902,36.9375,2.09982,8.57117,-4.32299,-0.139759,0.968623,-0.145465,10.0383,-58.645,44.6509,34.875,9.19553,4.44631,-3.07523,-0.200537,-0.181946,0.58506,-46.7321,-11.685,18.8955,1
descending stairs,105.0,34.875,-1.69198,8.24561,-5.78618,-0.497373,-1.05386,0.537119,19.0187,-49.8971,-5.73707,37.8125,-3.57662,8.02243,0.880728,0.181545,-1.50833,0.164086,19.1202,-44.7824,15.8891,33.9375,9.90836,1.80679,-1.19924,-0.474043,-0.252421,-0.674339,-50.3829,-20.9832,30.1891,5
transient activities,88.0,35.4375,3.34928,8.8459,-2.13336,0.536044,0.142015,0.422937,-26.2201,-25.2654,-0.545538,37.625,1.93902,9.47028,0.472574,-0.0374534,-0.0186691,-0.060452,16.409,-32.4026,-10.7088,34.375,9.54698,-0.568879,-2.92473,-0.0423605,0.0189367,0.031217,-43.2959,-0.878235,-17.4648,5
lying,75.0,34.875,1.82988,5.73909,-7.18749,0.0453671,-0.429304,-0.0514658,-12.0814,-20.8209,-19.3673,36.625,0.00604776,1.51598,9.29179,-0.0150405,-0.030412,-0.0126836,39.5391,6.22575,-28.1108,34.125,-0.382534,-9.07521,-4.44017,0.0033567,0.0114321,0.0155121,-14.1642,27.4434,-5.76499,5
lying,62.0,33.375,5.00219,-0.25634,8.19824,-0.0391069,0.0340312,0.0033325,13.9553,23.939,-40.5574,35.5,0.572782,-1.23399,9.38843,0.00357878,0.0250239,0.00229363,37.1632,17.1453,-26.9202,34.5625,-0.201294,-9.57971,-3.23891,0.018244,-0.0267545,-0.00843896,-17.213,26.9525,-5.49148,6
ironing,103.0,33.375,-9.03242,2.27085,2.70671,0.0294025,0.0142703,0.00108255,39.0365,0.0426297,0.874819,35.3125,1.15761,9.7405,1.07707,0.0112247,-0.0199785,-0.000868102,-11.8116,-27.8926,2.04161,34.0625,9.37775,1.17629,-2.62858,0.0294465,0.0044397,-0.0167821,-3.69963,-19.2547,8.9347,4
transient activities,104.0,30.75,-2.89259,-5.93281,7.17543,-0.0383478,0.00518943,-0.0117938,28.0311,30.0237,-24.7437,35.375,0.543272,9.61974,-0.366338,-0.0206847,0.00296785,-0.00325534,18.5949,-32.8954,13.2799,31.3125,9.30259,-0.143378,-3.70167,0.0226415,0.00252521,0.00760197,-31.0044,17.5499,21.7027,8
transient activities,155.0,30.8125,1.48325,-6.49881,7.12742,-0.0663553,-0.0348375,0.0400265,16.3954,16.7367,-38.2877,34.0625,-0.662794,10.2952,-1.28096,0.000480096,0.0883192,-0.0741715,14.6906,-31.2048,14.2302,31.625,6.47647,-7.62187,-1.67758,0.0581549,-0.00458736,-0.00576282,-12.0958,24.1786,13.5352,8
transient activities,135.0,33.25,-8.45157,1.35128,2.21818,-0.229717,0.405994,-1.53217,41.0186,-36.0714,-28.8311,37.6875,1.10663,8.18609,-0.506355,0.25693,-0.131995,0.284815,-4.15967,-42.089,-11.502,32.125,-1.45828,-3.01899,-1.32445,-1.81549,-0.213003,2.18908,-17.3576,-20.574,29.0283,7
ascending stairs,128.0,34.0,-12.7176,4.84024,-1.70623,0.843508,-1.01582,-3.206,41.1047,-2.20164,-34.8109,38.0,-3.49235,10.1803,-2.91941,-0.467844,0.703385,0.0162486,-19.5341,-32.1336,13.5743,33.9375,8.65604,-3.16776,-4.80863,0.547699,-0.410673,-0.0185233,-34.4582,-0.569948,-25.3767,8
vacuum cleaning,83.0,34.125,-10.4011,3.32139,4.4146,0.328884,-0.129834,0.0120403,29.3757,11.8456,-7.31358,36.625,1.54943,8.42727,-3.59679,-0.106632,-0.0391551,-0.0670236,14.5552,-18.5738,26.2839,35.125,10.3401,2.50417,-3.24438,-1.3375,0.0543893,-0.990405,-2.32509,-18.6232,-15.5981,6
running,109.0,28.9375,6.26532,4.39393,-0.997016,0.792511,-2.56781,-1.09925,13.4036,-35.9685,-4.05882,32.4375,2.44814,0.498184,-0.805551,-0.608918,-0.664368,1.32757,-13.3064,-33.3794,6.45425,31.875,24.2591,21.3078,12.8735,-1.58781,-2.134,5.58809,-29.101,22.9801,28.6521,2
lying,77.0,33.8125,6.76602,2.67113,6.17495,0.00853551,0.0140108,0.00497963,7.19059,2.45195,-44.3101,37.1875,1.44054,3.61564,8.65269,0.0210086,0.0263053,-0.0156558,30.7803,-3.25679,-27.0354,34.6875,-0.444863,-9.42063,-3.937,-0.00344582,0.0109712,0.0249428,-13.0109,23.7286,-4.39671,2
ironing,93.0,35.375,-3.19989,6.02616,3.47418,0.0213967,-0.338892,-0.302882,24.9973,-66.9718,-9.32013,37.4375,-2.84403,10.9021,-1.67094,0.254052,-0.617097,-0.0381752,-3.6231,-38.1138,-8.70072,34.4375,9.01897,1.39161,-0.819886,-0.271253,0.346589,1.45792,-43.2751,9.19909,38.4054,5
walking,122.0,33.4375,-8.66413,6.3374,3.77616,0.280789,0.00916151,-1.87088,62.1816,-20.2956,-12.781,37.25,0.610725,10.4743,-2.03289,0.268229,-0.0842851,-0.101594,-19.1603,-60.7612,-8.25833,34.8125,16.83,29.0023,1.52001,-1.5563,-1.63877,4.23003,-29.7017,47.3622,38.6956,1
transient activities,88.0,34.5625,-7.72085,3.02508,3.33961,-1.1213,0.961306,0.652516,14.0854,-52.1264,-21.4614,36.1875,-0.369984,10.1874,-0.384728,-0.241497,0.719289,0.195579,0.0866372,-35.6624,-17.2901,34.0,9.5295,0.300138,-2.39005,0.0806482,-0.347174,0.0927018,-47.2594,27.6397,24.8959,5
cycling,123.0,33.0,-2.28121,0.958195,10.3173,-0.447884,-0.0634203,0.725996,36.0297,-15.4644,-45.35,38.1875,1.75703,8.36664,-6.88412,-0.326955,0.58951,-0.321167,-11.1757,-29.2404,34.9077,32.375,7.57926,3.53522,-1.85128,0.707312,-0.495549,1.581,-38.0135,-15.5545,28.3825,7
sitting,77.0,35.0,-0.337251,7.31861,6.24531,0.0139242,-0.0153305,-0.0309923,2.67452,-22.6068,-27.5228,36.9375,0.391963,9.48746,2.26438,-0.00310856,-0.0197158,-0.047842,5.26074,-23.2256,-6.89038,34.1875,8.98053,-2.79671,-3.99722,-0.00127985,-0.000556029,0.0185385,-35.6983,2.6172,30.2134,5
transient activities,167.0,27.9375,-8.80688,3.49904,0.242756,0.358498,0.13043,-0.330122,27.128,4.0127,-23.0094,33.1875,1.53214,9.53215,-1.70337,-0.00761356,-0.327063,0.189566,-16.2296,-37.9302,13.7712,33.8125,9.37775,-0.296048,-3.66136,-0.376353,-0.0855914,0.00651327,-42.1878,-70.6754,-4.61509,6
transient activities,94.0,32.5,-9.06675,2.95371,2.66541,0.0483212,0.0376149,0.106533,42.1088,-4.60113,-17.2133,36.9375,0.314485,9.5828,-0.370362,-0.0351996,-0.0625776,0.0281919,5.32981,-41.8212,13.9433,32.0,9.51299,-1.17807,-2.68976,-0.0752574,0.00878955,-0.0351348,-23.8751,10.3256,6.41827,7
lying,74.0,34.8125,0.83048,7.3465,6.14724,0.0174028,-0.0327056,-0.0264942,-9.75516,8.08468,-32.5393,36.5625,-0.217666,1.66834,9.44212,0.0177379,-0.00698105,-0.0298175,38.913,5.21728,-28.2504,34.125,-0.526934,-9.11384,-4.24847,-0.0169647,0.0154006,0.0147081,-14.4255,27.5843,-6.04973,5
standing,109.0,32.8125,-8.05563,3.97585,3.2929,-0.0341921,-0.00212904,-0.00696221,54.1965,-47.9448,7.03351,34.375,0.676386,9.65251,-1.02229,0.0401175,-0.0124301,-0.00547097,-39.0242,-54.8109,12.2866,33.1875,9.42281,-2.85697,-1.59976,0.00201548,-0.0292711,0.00488628,-71.4613,-5.54347,62.981,1
descending stairs,153.0,31.6875,-0.854856,-8.07014,7.55955,0.412768,-1.8841,-0.512265,7.35503,0.772631,-7.52832,36.75,-2.50097,4.42857,-1.06287,0.209114,-0.808669,-0.192414,22.5551,-22.9764,-15.6645,34.4375,3.81637,-3.51873,0.044794,0.114115,1.13419,5.37035,-59.3259,-12.4698,-30.3976,3
lying,70.0,32.6875,5.00726,0.275145,8.23501,-0.0234864,-0.00365924,-0.0386245,19.2315,7.14617,-49.7837,34.625,-0.366741,2.08352,9.51551,0.014492,0.0162292,-0.0408137,40.3484,4.26183,-28.517,33.25,1.96093,-9.5577,1.72259,0.00974748,0.0249828,0.0125051,-20.7781,15.9031,-14.4266,4
ironing,81.0,34.0625,-5.84744,1.34129,7.60697,-0.461102,0.115293,0.605417,18.0214,1.75382,-44.893,36.5,-0.671549,9.57826,-1.51112,-0.0808905,0.0283438,-0.0414886,5.74475,-36.2673,-8.50501,35.0625,9.8891,-0.621273,-1.4159,0.0413901,0.0337832,-0.0424708,-32.3524,13.8167,42.6934,6
transient activities,78.0,33.4375,-9.61346,-1.76234,0.941196,0.0220072,0.012393,-0.00158143,48.7548,-8.28708,11.4042,36.1875,0.171277,9.623,-0.06332,-0.0104045,-0.000210293,0.0279892,6.6366,-39.0446,25.781,33.0,9.59778,-0.116706,-2.54112,-0.00455822,-0.0499486,0.0235808,-34.9328,37.9714,-17.6223,8
lying,72.0,34.125,6.52922,-2.1773,6.88053,-0.0288428,0.0223579,-0.00192387,-39.8859,-7.17263,-15.588,37.25,0.911589,-0.671552,9.19914,0.0148983,0.0231893,-0.0230976,35.1784,14.5125,-29.0342,33.6875,-0.988848,6.40749,-7.62964,-0.04546,0.00415741,0.00822578,-15.0749,8.56189,37.3707,8
walking,122.0,28.8125,-17.1524,2.82714,2.62169,-0.962401,-2.28995,3.10823,34.7625,13.9409,-12.7923,36.6875,-1.35967,10.68,-0.404259,-0.171732,0.34423,0.113696,15.8693,-27.9024,9.72362,34.375,9.67642,-1.28641,-3.49779,-0.185537,-0.341543,-0.672052,-35.1391,-11.0138,12.2476,3
ironing,81.0,33.875,-5.27927,-3.15123,6.39904,0.57545,-0.143009,0.0733271,3.36527,7.49308,-55.1342,36.75,-0.880921,9.38645,-2.13382,-0.260788,-0.0302321,0.304177,0.804015,-39.057,-3.02438,32.8125,9.24159,-0.869447,-3.08036,0.249903,-0.053247,-0.320022,-30.1122,2.3981,50.3735,7
transient activities,110.0,34.4375,-2.242,7.83027,2.4048,1.33174,0.034316,1.60554,16.6483,-15.0411,-31.6651,38.0,1.18255,9.51161,0.65234,-0.038936,-0.23484,-0.106899,19.0478,-20.3942,5.45685,33.5625,9.34796,0.956832,-3.63085,-0.00734718,-0.222305,-0.772083,-34.9961,-8.95861,2.28839,5
Nordic walking,129.0,34.6875,-0.284557,-0.282937,0.614095,-0.0635889,-0.186086,1.39219,28.7705,-37.1481,-18.6949,38.4375,0.292031,3.25574,-0.543808,-0.159784,0.0201555,-0.118134,8.49486,-39.497,22.8354,34.25,6.55691,-4.01148,-2.16224,-0.687072,-0.234135,-0.311581,-39.986,-17.1546,20.0094,5
transient activities,113.0,33.8125,-5.98482,1.48642,2.52409,2.02695,0.36949,-1.59997,65.0442,12.5555,-16.2787,35.9375,1.0507,4.90829,-0.806482,0.207105,-0.177871,0.590405,9.2182,-59.4272,35.4441,34.875,5.17565,-2.06438,-2.42002,1.60995,-2.00619,3.75597,-50.5894,-49.3211,-11.6764,1
lying,70.0,34.25,6.45016,-2.10184,6.76363,-0.0294646,0.0220902,-0.0111322,-39.6421,-7.3092,-14.8003,37.375,1.07484,-0.481429,9.54997,-0.00157583,-0.0172491,-0.0480028,34.6588,14.6605,-28.8976,33.75,-1.02847,6.40837,-7.70723,0.0126716,0.0362737,0.0141941,-14.9475,8.94387,38.0798,8
walking,103.6,34.4375,-5.87651,5.06382,3.82221,1.78908,0.51542,-0.834628,48.8632,-15.9973,-3.9034,38.0625,0.131801,5.22001,0.298765,0.25012,0.781339,0.31924,-16.2321,-37.5266,-2.02357,33.8125,6.37282,-0.882328,-3.95867,1.81991,1.86419,4.98151,-32.3684,-12.204,37.6176,5
Nordic walking,124.0,30.25,-6.60642,2.93575,2.81778,0.427367,0.0991233,-2.27634,28.5503,-22.8618,-25.3851,35.25,0.241063,4.29785,-2.368,-0.20956,-0.244412,0.282171,-1.18679,-32.5454,5.41349,34.0625,2.03533,-1.17086,-2.49636,1.16399,-1.29553,4.24671,-40.1069,-6.6862,15.3051,2
sitting,82.0,32.9375,-2.47653,6.39213,6.83219,-0.00616168,-0.015317,0.0121969,8.96091,-21.3264,-23.4751,35.125,0.797963,9.64504,-2.06553,-0.0267077,0.0239162,-0.0228454,2.65487,-23.914,3.38872,33.875,9.47615,1.88075,-0.625285,-0.0042355,-0.0112319,-0.000475168,-6.63143,-6.1934,22.667,4
ironing,104.0,33.5,-5.7249,2.57417,9.79842,-0.914027,0.113315,0.0412586,16.8258,0.946031,-49.2163,35.5625,-1.50328,7.66587,-6.28265,0.0728523,-0.0109785,-0.0984841,9.45692,-39.3913,11.2792,34.1875,9.68023,0.6387627499999999,0.2045442499999999,0.03101718,-0.0260865825,0.0542261,-42.821375,-1.039961,33.880225,4
transient activities,149.0,33.0625,-14.9632,2.62018,2.6167,-0.345421,2.23272,-4.35752,12.6871,-21.0291,-23.7469,36.625,-1.01032,11.9047,-2.88005,0.175296,-0.535152,-0.389494,3.94748,-27.6887,-8.98924,34.9375,8.75285,-4.25007,-2.52413,1.6983,-0.155878,-2.05571,-45.0083,-7.66129,10.9034,6
ironing,85.0,32.6875,-4.79799,5.79988,6.45302,-0.293182,0.248864,0.220862,6.87594,-16.4214,-39.1864,35.875,-1.90201,9.39147,-1.88129,-0.231694,-0.101008,0.248765,5.59395,-32.5397,-7.72204,33.5625,9.46803,-0.719316,-3.04038,0.0380256,-0.0202383,-0.0162032,-26.136,19.2711,42.699,3
walking,123.0,32.5625,-8.15514,-3.59548,0.89225,-2.56682,0.431659,1.4371,41.6286,-4.19493,-5.01017,37.1875,0.135977,5.07043,0.454211,-0.0119767,-0.084389,-0.641198,4.32712,-31.9714,3.16409,32.875,8.79963,1.99398,-4.68483,-1.85893,-1.75297,-5.82023,-30.9295,26.9152,11.7638,8
transient activities,94.0,29.8125,-6.55597,-0.213327,7.10126,-0.027857,0.000633697,-0.0318582,31.7658,-5.66886,-26.897,35.375,-0.361959,6.71229,-7.53666,-0.0206462,0.0350206,-0.00652457,0.29911,-9.28313,31.0671,34.3125,9.71614,-0.0158021,-1.03554,-0.0245923,-0.0334394,-0.0164918,-28.8364,-4.95103,24.7149,6
sitting,93.0,32.625,-8.62833,2.95621,3.32625,0.030537,-0.018934,0.00921704,7.92992,-49.2156,-23.9285,34.3125,0.854577,9.72437,-1.44522,-0.0198863,-0.00633176,-0.0259383,11.0901,-68.3995,-28.7705,33.0,9.50827,0.876734,-3.24282,0.0511641,-0.0107483,0.00203838,-85.8495,39.9959,11.1022,1
transient activities,125.0,30.625,-5.83874,-1.84757,7.42542,-0.0179861,-0.0140475,-0.0547644,58.6501,14.2354,-34.6836,34.375,-0.76083,9.54667,-0.660773,-0.0261167,0.0524789,0.0174388,29.0561,-44.519,29.9162,31.8125,9.66848,-0.91452,-2.53544,0.0360871,-0.00215462,-0.00422261,-53.7453,44.1821,23.8611,8
transient activities,95.0,35.1875,-9.32844,4.17815,3.58105,0.0917254,0.0110207,0.265005,43.9202,36.9974,-19.1752,37.6875,3.34529,8.38506,-3.40924,0.0615385,0.402807,0.188094,12.7005,-26.1333,44.2215,34.375,9.50638,2.63719,-4.9517,-0.43673,-0.768224,-1.74568,-50.6672,-28.4865,13.177,5
transient activities,107.0,33.625,-9.87314,1.70684,2.54207,-0.0702323,-0.373488,0.58388,39.317,4.99356,3.86256,35.75,1.44196,8.29617,-0.771685,0.19628,0.170405,0.0428268,-14.1826,-27.5585,12.7395,34.375,9.62169,0.0391074,-3.04351,0.230706,0.0435628,-0.0867819,-16.7455,-25.3072,6.05919,4
transient activities,136.0,33.5625,-10.0744,-0.927532,0.546601,-1.25311,-0.692915,-0.10618,34.608,13.7968,-12.0604,37.75,0.912956,10.3222,-2.10437,0.60589,0.491448,-0.217799,20.9119,-37.2247,1.75827,33.5625,4.70029,0.303762,-3.79023,0.350225,-0.6324,0.437341,-27.5493,30.3536,12.4809,8
walking,122.0,31.4375,-12.4693,-0.466791,3.28026,0.718534,0.858958,-5.05227,42.9571,-25.488,-13.0797,36.3125,-0.454515,7.03614,-4.24811,0.220021,-0.231698,0.337183,-4.92607,-43.781,13.5543,34.4375,3.01208,-1.11274,-1.05889,1.84215,-1.52065,3.2428,-37.3863,-16.0675,16.6681,2
transient activities,118.0,32.875,5.56351,7.13156,3.25534,-0.337731,-0.0296426,-0.0218419,-28.7345,-14.3546,-29.7401,36.625,0.152805,9.70284,0.594342,0.00313402,0.0728437,-0.00901834,7.82636,-32.9782,-20.6356,34.9375,10.0014,-0.404536,-0.142641,-0.0224485,0.0331231,-0.0158619,-61.0346,16.3593,26.8462,6
transient activities,79.0,33.4375,-2.67969,12.2883,4.11514,0.407387,-0.799066,0.284756,25.6031,-14.6313,-3.47087,36.75,0.654319,4.74062,-9.06068,0.0916554,0.045426,-0.0205395,13.2232,-3.8192,23.0888,35.125,9.82819,-1.10852,-2.14671,-0.655048,0.0756715,0.231798,-22.6294,-6.47414,6.15848,6
lying,72.27272727272727,34.1875,6.41505,-2.10088,6.84008,0.00418484,0.0133519,0.0140931,-41.0012,-7.23736,-15.8478,37.3125,0.995825,-0.669976,9.47171,0.0265197,0.0130972,-0.0113645,35.1923,14.5129,-29.8801,33.6875,-0.921104,6.52317,-7.89979,0.0144689,0.0140955,-0.000976157,-15.0721,8.43301,37.3708,8
cycling,128.0,28.75,-12.9261,-2.0071,4.58719,0.677293,0.018822,-0.125676,52.5546,7.38141,-7.85838,34.0625,0.54076,11.2487,-4.4761,-0.313776,0.473967,-0.357123,-6.66142,-25.1548,38.441,32.75,-0.272554,11.585,-0.553945,-0.192403,-0.112734,-0.298112,-10.0166,-38.2397,12.9058,4
vacuum cleaning,102.0,34.5,-1.34287,3.96931,8.43532,-0.07001,-0.056217,-0.15457,3.47695,-18.8821,-35.5864,38.0,-3.06782,6.5414,-6.26862,0.0144954,-0.215913,0.171821,8.49738,-27.6873,25.302,35.25,9.49683,-2.6017,-0.365718,-0.359147,-0.0377886,0.118866,-15.6232,21.645,1.66759,2
transient activities,119.0,32.0,-0.384066,6.9367,1.70438,0.171689,-0.978377,-0.658309,18.1223,-37.3553,-19.0568,36.5625,0.338209,6.43856,-3.14762,0.0547723,-0.598627,0.479793,16.8179,-28.9842,26.7749,34.625,2.11965,-2.31489,-1.94815,0.800808,-1.94345,4.00887,-34.6105,-24.2064,-1.14176,2
ascending stairs,133.0,33.8125,-13.9666,2.39866,4.17187,1.79753,0.140632,-4.50403,61.2982,-35.5622,36.0178,36.125,-0.658039,7.04255,-3.39996,0.148059,-0.420153,0.222066,-56.9057,-41.0047,34.0979,34.875,8.80606,4.05148,-0.915755,-1.91294,1.12774,-3.28835,-10.0651,-45.1546,32.7208,1
transient activities,92.0,34.4375,0.759624,9.56198,-0.712047,0.0483665,-0.0240079,-0.00408345,-58.3418,-28.8679,27.4938,36.0,1.35829,5.45752,-8.50816,0.00239875,-0.00297279,0.00729119,-17.6615,-29.6329,22.5974,33.875,9.09733,-3.41785,-2.41,0.024328,-0.00120087,0.0422319,-32.8173,30.193,43.5238,5
sitting,75.0,33.875,-1.23135,6.87437,6.69526,-0.0416614,0.0258481,0.0113909,-0.969501,-22.1629,-22.7249,37.3125,1.17132,9.14413,-3.56725,0.00439345,-0.0137563,0.01275,-3.20553,-20.5259,5.8894,34.6875,9.4266,-2.55386,-1.52442,0.00696851,-0.00970009,0.0263518,-14.3184,-4.03877,21.6827,2
transient activities,123.0,32.0625,2.23585,9.31541,2.69779,0.106156,1.09018,0.178869,-32.8069,-47.027,-18.8092,36.6875,1.11889,9.64772,-1.51763,-0.0404875,-0.0960619,-0.01241,-18.6814,-55.5491,-5.66989,34.0,9.70771,0.0520202,-0.0327178,0.0230728,-0.0358304,-0.00536041,-42.5392,-0.976407,15.5097,1
transient activities,138.0,30.875,-3.18967,-7.74946,-1.0207,-1.48085,0.76983,-2.62805,9.50324,26.1983,12.7181,34.0625,-0.268145,9.92955,0.508537,-0.00513307,-0.0304576,-0.0791151,16.9664,-35.2769,4.96285,31.6875,9.14039,-0.214833,-4.12737,-0.0363829,0.0209621,0.0139214,-21.1745,4.86074,32.5312,8
ascending stairs,110.0,34.25,-10.5605,9.48389,1.81277,-1.55902,1.2806,0.0538049,30.5828,-28.1594,5.0869,38.125,1.37847,11.2108,-9.64941,0.0402922,0.975228,-0.0622913,-14.6604,-24.3476,25.6906,35.375,5.93508,2.55622,-1.59194,-0.46202,0.569008,-0.361749,-25.7888,5.04503,32.8897,2
transient activities,106.0,34.4375,-9.63547,3.2606,2.54039,-0.615442,0.24189,0.174648,32.9098,-19.8734,-21.6951,38.0625,1.99627,9.49462,-1.46251,0.280083,-0.0772386,0.225033,5.91461,-31.89,-7.25965,33.75,9.67713,1.59269,-2.70527,0.12967,-0.469474,0.138948,-29.2115,17.9453,11.4966,5
transient activities,81.0,34.0,-4.09719,5.87554,7.04058,-0.11348,-0.108617,-0.146802,5.82605,-35.8044,-26.268,37.0625,1.06678,9.69105,-0.705574,-0.0871213,-0.154825,-0.0624486,-16.3663,-29.7847,-1.08143,32.9375,8.98679,-0.326827,-4.24402,0.0670015,0.0107081,-0.0615255,-16.878,-30.4732,41.9482,7
Nordic walking,139.0,32.5625,2.09243,0.114333,0.455923,-1.68472,-0.231076,0.714457,-23.0322,-14.7929,-56.3013,37.0,0.363817,11.0817,-1.41981,0.0593594,0.171399,-0.115058,35.3566,-48.5112,4.96578,34.3125,11.7309,-0.157505,-3.83104,-0.565407,0.752738,-1.59784,-62.2372,9.01189,-20.1185,1
transient activities,135.0,30.375,0.596387,4.9128,5.34371,-1.06375,-0.182328,-0.0596497,14.3072,-63.0938,-65.1191,33.9375,-0.326805,9.64409,-2.74416,0.166317,0.139385,-0.277061,-2.43629,-72.8126,50.9391,33.1875,9.88378,-0.592383,-0.29704,-0.0685106,0.0257234,0.0453911,-42.7239,-32.3711,-21.3384,1
Nordic walking,113.0,30.25,-6.7401,11.5004,1.55529,-0.0598659,0.00309356,1.84623,22.2107,-32.9577,-28.6806,35.6875,0.73383,7.15563,-2.71685,-0.444231,1.17271,-0.0658388,8.65675,-38.4353,-11.2925,34.5,12.1107,6.41704,-4.87127,1.48157,-1.65413,-2.86043,-39.4525,20.3578,1.52954,6
running,154.72727272727272,33.8125,-9.45343,19.121,15.4214,0.149424,-0.513292,-5.1391,24.442,-39.7802,-31.7934,36.5,-2.96104,27.61,-3.31493,2.49912,-1.56326,-0.531105,-1.71281,-46.6013,23.7918,34.125,6.68378,-0.365919,-2.33792,-1.88534,0.174734,0.565853,-1.49697,-39.5469,19.3197,5
ironing,86.0,32.6875,-6.33845,5.69069,5.62208,0.0198456,-0.0477797,-0.0887831,4.65481,-26.7753,-36.3793,35.875,-1.63242,9.57943,-1.79958,0.0194143,0.0334885,-0.0421477,3.41139,-32.1493,-5.79338,33.5625,9.86505,-0.168625,-1.03306,0.0076078,0.0351548,0.0425289,-33.5086,14.7432,37.6361,3
Nordic walking,138.0,33.0,-1.48044,4.02888,2.27508,-0.0757955,-0.24451,4.43339,-6.70875,-44.9302,-13.3265,38.375,0.677501,2.7287,-0.341507,0.448584,0.650629,0.38613,-7.20787,-39.0046,-16.8989,32.4375,11.5193,0.856137,-2.25732,2.63706,-2.80846,5.16908,-39.2178,-3.63154,34.6051,7
walking,111.0,34.4375,-9.65121,1.40091,2.46946,-0.893054,0.73768,-1.60366,35.1673,-31.5338,-20.0542,38.0625,1.96189,9.60848,-1.34734,-0.0633196,-0.256904,-0.00826411,-5.0726,-37.796,-14.7758,33.8125,3.66101,-9.24743,-0.384322,-2.13061,-0.0182888,0.683133,-35.8089,-17.0798,28.6757,5
sitting,87.0,32.375,1.10363,8.13216,5.14801,0.0303381,-0.00473136,0.00883734,-38.49,-13.6747,-48.1269,34.0625,0.881458,9.66396,0.762553,0.00679124,-0.00327548,-0.0141572,12.0695,-61.4893,-42.5976,32.8125,8.43113,2.67914,-4.61568,0.0293812,0.054882,-0.0115828,-79.9671,23.0962,30.4309,1
standing,76.0,33.0625,-9.38335,3.27377,0.00395662,-0.15847,0.0463168,-0.020391,30.2746,-13.6366,0.975524,35.75,0.982746,9.76478,-0.978382,-0.0290087,0.00672612,-0.0242044,-2.79545,-30.7991,-3.23732,32.375,9.10483,0.355254,-4.16987,0.0230375,-0.0106182,-0.00354859,3.48906,-6.72448,13.7677,7
lying,72.0,32.75,5.27045,0.462127,8.16134,-0.0173481,0.0120568,0.0112633,18.2529,6.08145,-49.9065,34.75,-0.601945,1.78172,9.31863,-0.00203382,0.0158457,0.00853519,40.7091,5.02143,-27.6728,33.5,2.27466,-9.55309,0.915403,-0.00922877,-0.00994246,0.0255191,-21.668,16.3371,-13.2956,4
sitting,80.0,31.6875,0.965946,9.9436,-0.286882,0.000114685,0.0437614,0.0275556,3.73081,-27.7911,-3.97563,34.5,0.613764,9.19289,3.35354,-0.052456,0.057604,0.00642137,3.39387,-18.4972,-7.85904,32.4375,4.68251,-4.1354,-8.8181,0.320053,-0.170308,-0.388681,-10.7048,14.3746,29.6476,3
lying,75.0,33.75,6.99142,2.66905,6.13984,-0.00392342,-0.0151625,-0.0136724,6.06117,1.98071,-44.8808,37.0,1.55259,3.61476,8.57728,-0.0112419,-0.0272108,-0.00904121,30.5459,-3.02433,-27.1612,34.625,-0.405434,-9.45948,-3.85918,-0.0592286,0.0280096,-0.00970475,-12.4432,23.4815,-3.90887,2
cycling,139.0,28.9375,-4.48368,3.76522,8.31199,0.275998,-0.272803,0.0167615,51.4822,21.4423,-36.2876,34.8125,-1.29433,3.51254,-7.85292,-0.446592,-0.0540306,-0.47286,19.8365,-24.207,46.9393,34.125,13.7837,4.86722,-2.33618,0.336008,0.167826,-0.401223,-45.2105,-8.57755,2.39385,6
walking,111.0,34.8125,-10.3064,4.64135,3.60333,0.675649,0.131962,0.543927,47.7936,9.23981,-21.1144,38.375,3.03553,10.2953,-5.04734,0.390629,0.0599613,0.153726,3.95614,-41.5177,18.8672,34.375,7.213,6.15311,-6.00037,0.672137,-1.24642,-2.42864,-43.6772,-10.0095,22.9666,5
lying,73.0,32.6875,4.42867,-0.632361,8.07545,0.0714346,-0.233972,-0.0807504,22.5543,9.69874,-50.0684,34.6875,-0.855922,0.581269,9.86002,-0.0354229,-0.227964,-0.0507416,42.5752,7.91745,-26.4072,33.375,2.41642,-9.18214,1.87929,0.0342981,-0.0451093,-0.141697,-20.872,14.2337,-14.5668,4
transient activities,129.0,34.625,-0.349291,9.36804,-2.15204,0.711908,0.798074,-0.0633015,16.4203,-29.162,-11.1068,38.3125,0.523334,10.2926,-1.10458,0.235934,0.0835916,0.146234,12.6607,-26.1015,15.4561,34.25,9.74409,-0.344823,-2.61538,0.312137,-0.46465,0.13711,-29.1134,-7.4374,6.42045,5
standing,72.0,33.25,-9.38503,2.9044,1.12131,-0.101317,0.0332057,-0.0768884,30.4803,-15.7615,-5.31114,35.9375,1.19423,9.3086,-1.51516,0.105424,-0.0230196,-0.0372275,-3.18227,-30.9139,-3.09835,32.5,9.0238,0.0152959,-4.32295,-0.0241359,0.0042887,0.0153728,4.09889,-5.46786,13.6266,7
sitting,79.0,34.375,-2.11663,-9.75134,0.926494,-0.0957574,-0.0138169,0.00271919,7.39184,24.1833,-13.9055,37.625,0.226847,9.73973,0.518121,0.173764,-0.0067517,-0.0257196,5.89429,-25.3151,-4.33603,34.0625,9.07825,2.85138,-2.95076,0.0244742,-0.0463098,0.00636107,-18.8608,17.3351,23.3058,8
sitting,82.0,35.0625,-5.51641e-05,-9.21784,3.03472,-0.00169774,0.025449,-0.0282087,4.82364,27.302,-9.0636,37.0,0.278507,5.23312,7.85196,0.0173129,0.0269555,-0.00881515,5.75643,-8.78684,-19.0953,34.25,9.16166,-3.11105,-2.83573,0.00999568,0.0352224,-0.0149691,-37.9684,5.16399,25.9475,5
transient activities,125.0,30.5625,-5.83553,-1.96039,7.54131,0.0384208,0.0143837,-0.0305487,59.3687,16.3066,-34.8289,34.375,-1.04126,9.58205,-1.13062,0.0064903,-0.011421,0.0181839,28.3558,-42.9477,31.8765,31.8125,9.52377,-0.800951,-2.38327,0.0390765,-0.0405837,-0.0156035,-53.4973,44.2972,23.4363,8
transient activities,92.0,33.5625,-8.50848,3.62889,2.28662,-0.288895,-0.126013,-0.209818,47.7876,-37.9382,2.46988,37.75,-0.436805,8.54538,-3.78804,-0.116766,0.0832023,-0.456957,-18.0643,-45.2306,0.114576,35.125,9.39518,-0.757453,-2.96371,0.11871,-0.0533377,-0.028905,-38.7558,23.9472,56.5916,2
Nordic walking,124.0,32.9375,-2.34091,11.9067,4.15999,-0.0919823,-0.968691,0.755734,32.8085,-42.0789,-18.017,38.3125,1.96042,9.20296,-0.0682623,0.106601,-1.13157,-0.345417,1.81366,-46.4538,5.06189,32.4375,9.80801,-1.16799,-4.1532,-0.622277,0.275535,-0.943911,-59.2054,2.95067,51.2633,7
cycling,119.0,29.375,-5.62751,3.08973,8.14319,0.712741,-0.263853,-0.448523,17.8562,-23.6355,-35.4551,34.0625,-1.29832,2.13942,-10.4428,-0.427337,0.0985987,1.04637,-9.56241,-19.3476,34.6004,32.9375,8.09686,7.15222,1.18016,-0.5778,-0.882353,0.190719,-38.929,-5.95713,23.844,2
standing,89.0,34.125,-8.53784,4.71005,0.127238,0.000259294,0.00376815,-0.0272118,22.2797,-25.6834,2.31546,37.4375,1.00016,8.98985,-4.18939,0.0139936,0.0130404,-0.0100727,-9.63681,-25.0169,7.25669,34.75,9.80549,-1.45482,-1.56595,-0.0316915,0.035305,0.00382769,-18.3979,-16.5521,36.1885,2
transient activities,147.0,30.875,2.85229,-8.91508,-3.00459,0.0418345,-0.0402673,-0.0732127,14.2603,43.0584,-4.06022,34.0625,-1.37332,9.55672,0.528448,-0.0116934,0.16308,-0.0124334,6.02505,-42.11,18.885,31.6875,9.52394,-0.344686,-2.46328,0.0261878,0.0347246,-0.0078415,-43.8292,15.5517,0.385066,8
descending stairs,131.0,32.125,-5.66498,3.65697,3.67618,4.58731,0.362788,-0.731148,26.7493,14.8994,-68.1243,36.6875,0.839278,8.5456,-3.14539,0.43306,-1.36214,0.902719,24.4584,-38.6912,21.7294,34.75,9.11858,1.3019,-3.86688,-1.5847,-0.125558,-0.518524,-63.2866,-16.0165,15.1476,2
cycling,116.0,30.75,3.80621,18.1537,8.04124,1.69748,0.662908,0.973828,31.1513,13.0914,-43.4135,34.875,-0.325194,11.6704,-9.33327,0.129427,-0.130224,0.510342,27.7945,-34.2725,18.8509,31.875,7.95749,-2.89477,-0.495454,-0.0227657,0.246261,-0.137539,-33.2449,4.0557,35.61,8
vacuum cleaning,105.0,33.6875,-4.85289,11.4364,-3.91992,1.03703,0.536707,-0.974952,19.9014,-25.123,-3.002,35.9375,4.07836,-2.54302,-9.82683,-0.0680135,-0.471941,0.416409,-3.60584,-0.62973,33.3879,34.4375,8.55414,4.49583,0.661076,-0.00831561,-0.250713,0.361203,0.994268,-6.91159,-4.53715,4
running,184.0,30.8125,-6.72732,8.27352,-2.85968,-1.27872,1.27324,1.80196,-25.0743,55.3258,-16.1283,34.1875,0.817536,-5.7214,-2.55732,-0.0221015,0.426848,0.273409,28.1918,-58.5311,17.2994,31.6875,8.3468,-2.07687,-7.98291,2.58893,1.11605,2.65663,-31.8572,59.3141,24.4879,8
transient activities,116.0,32.625,-8.77279,2.39097,3.63389,0.0153613,-0.0347404,-0.00820337,43.2758,18.6674,-16.3069,35.5625,0.239428,9.74258,0.944271,-0.0871445,-0.0127752,-0.036761,24.5915,-33.7659,17.4157,33.5,9.56719,0.984299,-2.50968,0.0122233,-0.0035945,0.00830489,-25.1151,-8.82607,-3.91762,4
Nordic walking,120.0,30.6875,-1.71691,-7.36162,5.42744,-0.0982952,0.372226,0.682791,14.0277,33.6183,-35.2357,33.8125,1.09562,9.35891,0.302773,0.197351,-0.592501,-0.147024,-5.2225,-39.47,-11.9472,31.8125,21.4072,-21.1891,-6.91999,-1.66694,-1.97366,-5.3334,-27.605,-31.1715,16.6652,8
ironing,76.0,33.9375,8.32544,6.94982,2.33514,-8.78733,1.11151,-0.926778,-35.3831,6.23057,-26.0458,36.9375,1.51345,10.1099,0.191739,-0.370175,0.122204,0.158629,-6.45063,-32.4581,-14.2517,32.875,9.50099,-1.3647,-3.07462,0.0471352,0.026345,-0.0354358,-29.3607,8.27827,48.8091,7
transient activities,108.0,32.875,-8.78082,2.57832,3.36373,0.263824,-0.284737,0.346278,37.7304,-3.63165,-30.2022,35.0,0.666197,9.55482,1.22366,-0.106849,-0.319982,-0.0489277,18.2629,-33.7669,-4.766,33.75,9.38737,0.907299,-2.24092,-0.139084,0.0885024,-0.0148618,-34.1311,15.0047,22.5456,4
transient activities,120.0,32.0,0.00121687,11.7833,0.924057,0.776176,-0.715544,-0.462276,5.68844,-36.6741,0.998267,36.5625,1.47799,12.9644,-6.43946,0.188158,-0.273518,-0.253827,-1.61855,-21.6931,29.9372,34.625,17.8464,-2.79705,-1.43657,-1.13454,1.26569,-2.29325,-8.55661,-18.2931,16.2848,2
walking,117.0,34.6875,-7.8983,2.95368,3.68358,1.00977,-0.117021,-1.03903,42.8767,26.7482,-26.3287,38.3125,-1.02303,9.70782,0.766628,0.288352,0.165546,0.221492,22.4706,-29.5687,24.9914,34.3125,21.619,-3.1884,-2.90044,0.96134,1.11241,7.17787,-42.2459,-18.4899,9.22371,5
Nordic walking,116.0,33.0625,-3.58787,11.3006,3.18117,0.215459,0.0218136,-1.07584,-10.3587,-40.6411,-14.7887,38.3125,-0.938747,10.294,-1.59573,0.0834537,-0.201452,0.155811,-3.35617,-37.0821,-18.011,32.4375,5.22555,-5.99093,-5.17359,-1.96336,-0.157533,-0.591505,-34.7149,-24.7542,20.604,7
Nordic walking,112.0,30.625,-1.09194,-9.20837,3.13379,-0.00551502,0.0388992,0.0966797,8.18355,21.1522,-29.3741,34.0,0.437211,9.44257,1.21988,-0.0948821,-0.0714846,0.0182058,-4.76102,-24.4031,-7.09443,31.8125,9.61067,0.031635,-2.11742,-0.00895043,-0.0263776,0.0103987,-24.6138,-9.9503,16.2256,8
sitting,71.0,33.5,-0.383534,8.14019,4.74083,-0.0141286,-0.0244888,-0.071763,4.96606,-21.1119,-21.631,35.875,-0.200321,9.77688,0.239215,0.0441357,-0.0394851,-0.0397719,7.30368,-26.4003,-2.91002,34.75,9.51017,-0.873034,-2.84604,-0.0067256,-0.0630365,0.00927305,-18.4231,-3.44937,11.5594,6
sitting,66.0,34.25,-1.94454,-6.85798,6.38452,-0.00781062,-0.0161838,0.0121474,6.86736,17.0036,-28.6901,37.625,0.424382,9.77835,0.7539,-0.085622,0.0112141,0.0236204,5.38333,-25.4251,-4.47996,33.875,9.20164,2.65729,-2.52381,-0.00933221,0.0157595,-0.00102319,-18.4285,16.032,25.2945,8
ironing,82.0,32.875,-3.86484,6.29179,7.11963,0.0388666,0.119368,-0.0447014,-2.60352,-47.9944,-54.4628,36.1875,-3.1286,5.17293,-8.20131,-0.00425215,-0.049792,-0.0242728,-6.24772,-35.9963,34.6282,33.8125,9.40857,-2.20636,-2.22138,0.0270741,0.00875961,-0.00178076,-33.3902,23.7505,40.3306,3
transient activities,150.0,32.5625,-4.68588,6.67589,-5.74875,-0.0134861,0.0122871,-0.0129112,11.3142,-49.838,23.9366,35.375,0.813236,9.66601,1.03236,0.0260566,-0.0490859,0.0178225,-10.6616,-47.7912,-2.34955,33.375,9.39691,0.420858,-3.12536,-0.0363333,-0.0288115,-0.00387546,-63.6019,13.8335,43.7181,4
transient activities,117.0,34.6875,-3.81896,2.88502,8.0555,0.173324,-0.0568778,0.117649,17.7054,-17.5817,-35.0639,38.1875,0.544791,9.47832,0.989383,0.111998,0.108462,-0.049355,-3.6979,-31.024,-2.96031,34.4375,9.70569,-0.963411,-1.22271,0.0455788,0.0500682,0.0443442,-23.1455,7.88792,21.5997,5
ascending stairs,153.0,32.5625,-10.443,4.14285,-1.32342,-0.949822,-0.1354,0.801512,40.4693,-23.7457,-12.8944,35.375,3.654,8.81641,-0.733301,0.271285,1.12093,-0.447238,-13.7275,-34.1381,-0.897349,33.375,10.9683,0.0854607,-0.444483,-0.114287,0.192784,-1.11823,-41.0717,0.552263,24.9491,4
transient activities,110.0,33.6875,-5.46958,3.04262,7.2605,0.0976758,-0.0735718,0.0166861,12.3779,-29.953,-31.6973,35.8125,-0.707049,9.85114,-0.157416,-0.075858,-0.0019365,0.0258581,-10.1868,-30.263,-8.36795,34.375,9.567405,2.070965,-0.7412985000000001,0.0321148,-0.02311915,0.0329879,-19.6501,-23.64335,40.86685,4
cycling,116.0,32.875,-9.79231,4.57853,9.73074,-0.174085,-0.684149,0.635165,51.2931,-6.72157,-42.1531,38.0,-1.32562,21.0528,-14.4156,1.7719,0.276801,-1.22932,-6.381,-21.6946,49.4217,32.25,1.56204,7.53043,-7.61045,-0.550217,0.657834,-0.6148,-28.1633,-38.6318,9.58028,7
vacuum cleaning,103.0,34.75,-10.3815,-6.15276,1.48333,0.47637,0.88669,1.04449,22.6051,37.2715,-11.7847,38.25,1.76909,3.98669,-8.65082,0.322148,-0.181523,0.0278101,15.7267,-16.4382,39.1113,34.6875,9.06833,-0.101096,-4.05164,-0.0585221,0.0456403,0.325251,-4.86191,-0.589651,31.8858,8
vacuum cleaning,115.0,33.6875,-9.66588,3.62192,0.498886,-0.0501959,-0.819143,-0.505659,49.0611,-12.295,-18.7555,36.0625,-1.93545,0.760304,-8.66873,0.557812,-0.107276,-0.489974,32.4359,-18.3399,34.8672,34.4375,9.21124,0.465606,0.847184,0.6464,-0.325195,0.161355,-17.0133,4.76036,-18.3717,4
descending stairs,130.0,34.5,-16.8792,3.98297,4.81567,-0.377953,-0.258838,-0.118339,35.4483,-7.11121,-33.9823,37.9375,2.39925,14.4368,0.11628,-0.523805,0.069781,0.385295,23.7709,-43.9041,-1.42702,33.625,15.0229,4.64544,-8.68937,-0.331763,-1.29287,-2.31434,-34.7976,-19.5932,23.0089,5
standing,74.0,33.3125,-3.59551,8.64638,-0.851169,-1.31559,-0.0758285,-0.429671,9.46589,-31.7666,-7.40246,36.0625,1.15455,9.73106,-0.316904,-0.0155524,0.0207445,-0.0264149,-1.7188,-30.1904,-6.61739,32.5625,9.18518,0.353174,-3.97608,0.0498045,0.00204101,-0.0206897,3.87149,-7.00272,13.2021,7
ironing,79.0,33.875,-4.85002,1.23359,9.16177,3.10808,-1.85976,-1.16481,-11.5017,-11.3136,-44.7539,36.8125,-0.507183,9.60936,-2.39882,0.0320919,0.067821,0.0671388,-2.80836,-38.4076,-3.19421,32.8125,9.35959,-1.25209,-2.80664,0.0376215,-0.00351015,-0.0467692,-29.9273,4.83,48.6693,7
sitting,88.0,32.0625,-6.63001,9.58559,-0.32248,0.926584,-0.27983,-0.706952,79.0076,-18.4917,7.99264,33.8125,0.0386941,5.86138,-10.663,0.605106,-0.0782385,0.122877,17.9531,4.54825,70.3526,32.5,9.91186,1.84379,-1.08366,0.0113657,0.445854,0.0133053,-48.6496,-80.0264,-47.9156,1
Nordic walking,139.0,29.5,-12.1199,7.95892,-0.360739,1.63378,0.478242,-1.85979,34.8218,6.4645,-10.8352,34.8125,-0.815074,11.9428,-2.72175,-0.540923,0.136315,-0.00224199,5.38287,-4.18239,30.3685,33.0,20.8528,-4.65085,-4.55858,-2.39906,0.0247968,-3.27004,-2.40919,-35.1727,2.85893,4
ironing,81.0,32.9375,-5.35433,6.47882,5.5187,0.778776,0.507395,0.296687,3.46908,-39.2836,-48.4206,36.3125,-1.85902,9.50535,-1.726,-0.0444319,0.178065,0.078947,2.61008,-34.7862,-7.77035,33.875,10.1815,-0.501101,2.25236,0.00129893,-0.147452,0.184168,-36.5576,21.7514,33.0322,3
ascending stairs,119.0,32.625,-11.474,2.10415,3.13255,-0.0378588,0.651056,-0.902575,10.9322,18.3811,-56.3966,35.625,-0.609214,11.5229,-3.45236,-0.128187,-0.44134,-0.153996,32.8687,-23.8628,-1.75952,33.5625,18.3155,-3.80039,-4.4741,-1.13873,-0.0257051,-1.75631,-45.1859,8.38161,-9.11414,4
transient activities,106.0,34.9375,-1.30433,11.9578,-1.90567,0.201324,1.59252,2.02879,6.63846,-31.9801,4.15298,38.4375,1.71157,9.64192,-2.08769,0.0393146,0.656813,-0.257264,-7.99541,-33.3211,2.09899,34.5,9.30517,-1.55111,-3.3456,0.0346753,-0.485407,-0.696454,-18.6698,8.31347,23.3169,5
standing,91.0,35.25,-9.77087,4.17465,2.80469,5.29008,0.153852,-0.421214,37.1689,-18.3477,1.51506,37.1875,1.87311,9.76515,-0.497602,0.329366,0.781896,-0.043438,-14.1874,-23.2903,1.29393,34.375,9.47032,-0.491826,-3.00317,0.170314,0.132651,-0.159365,0.13071,-5.46255,35.5966,5
walking,102.0,33.0625,-7.62666,3.46409,1.60761,2.08443,0.53986,-1.34471,50.0135,15.4549,-14.3326,38.0625,0.130661,6.08526,0.179769,0.292529,0.183311,0.302602,8.64382,-41.4376,23.4115,32.375,7.1121,-0.552825,-3.02698,1.49486,-2.57004,4.67991,-36.9531,-25.6012,1.16615,7
descending stairs,99.0,33.875,-5.58586,4.4807,2.51996,0.701986,0.309613,0.0302637,68.8703,-19.6581,59.8269,37.875,-0.835839,5.39029,-2.81699,-0.641686,0.432655,-0.164987,-10.6384,-37.0838,35.173,35.1875,8.54936,5.9042,0.227802,2.00506,-0.204198,-0.0686809,-38.433,-4.93976,45.8834,2
walking,119.0,29.1875,-11.7383,3.85693,-0.495135,2.3984,-2.62896,4.08959,53.0186,-4.11447,-28.125,36.8125,1.52522,7.21498,0.859618,-0.0309363,-0.545992,0.0153618,20.2133,-40.3243,20.3145,34.5,10.3697,0.137908,-1.76299,-0.407222,-0.349599,-0.932665,-38.1282,-20.4231,14.2759,3
transient activities,135.0,29.125,-0.0791512,-0.126352,9.77664,-0.0334009,0.0120939,0.0227532,-22.0477,14.2991,-63.6371,32.5625,-1.60713,3.84163,-9.44722,0.00549695,-0.0270992,0.0223412,3.68966,-12.8942,38.1198,30.6875,-3.34114,-2.32875,8.60807,-0.0148497,-0.0245232,0.0119761,23.5166,13.141,-52.4632,2
sitting,77.0,32.9375,-2.43606,6.39251,6.90977,0.0223693,0.00702754,-0.0142839,9.44561,-20.9794,-22.5595,35.125,0.835779,9.53196,-2.06447,0.0389451,0.0249165,0.00995204,2.78185,-24.5643,4.09831,33.875,9.59114,1.76517,-0.50762,-0.00197554,0.0347295,-0.0244581,-6.63104,-6.58175,21.9582,4
rope jumping,174.0,30.1875,-19.9859,9.00527,7.86967,2.95627,-1.58296,-3.25855,68.9527,-16.5181,1.4168,33.75,-0.0751477,21.4848,-5.64344,-0.48083,0.0517851,-0.131898,-33.3335,-54.2133,23.896,33.1875,21.4421,8.08222,-2.04605,-0.944424,0.633396,2.61287,-43.7359,-36.3656,42.002,1
ascending stairs,114.0,32.625,-8.31205,3.93228,2.44249,-1.03836,0.327962,-0.18991,39.3235,-0.337589,11.7688,35.625,2.57846,7.54716,0.374247,0.133448,1.66996,-0.377906,-9.62027,-27.0862,16.7167,33.5625,5.71864,6.45534,-4.66693,2.58564,0.543113,1.15297,-2.68034,-22.2156,26.2452,4
lying,80.0,32.75,5.16216,0.426405,8.31379,0.0557114,0.0116038,-0.0212211,19.0101,5.79222,-50.8249,34.75,-0.45073,1.74333,9.28277,0.00362662,0.0149201,-0.0211186,41.1065,4.74927,-28.0915,33.375,2.42876,-9.55532,1.07136,-0.0059204,-0.0378905,0.00793551,-21.1676,16.9567,-13.0109,4
vacuum cleaning,92.0,33.1875,-8.4732,7.84035,-1.92218,-0.469983,-0.95873,-0.267475,30.8919,-27.9797,-18.7548,36.75,-1.60678,7.44289,-5.89659,-0.610509,-1.53832,0.945119,17.6938,-33.7337,5.33063,34.125,10.4611,0.779045,-1.30296,0.319936,-0.384065,0.456921,-40.1423,-13.2098,41.7244,3
transient activities,129.72727272727272,33.1875,-11.7682,2.06087,2.28157,0.251614,-0.454883,0.52028,34.717,-9.66644,-16.6426,37.6875,3.22598,8.23376,-3.56579,-0.652774,0.24519,0.375792,2.65927,-23.7766,-4.79029,32.0625,13.937,8.95542,-5.6015,-0.503423,-0.201757,-2.22894,-55.9689,21.792,33.8075,7
rope jumping,180.0,30.1875,2.37742,3.4514,4.72103,-0.36923,-0.119071,-1.67962,62.1947,-32.9992,1.89521,33.8125,-0.885784,-6.56137,0.473508,0.0427383,0.505644,0.760036,-38.3494,-54.8436,13.4,33.1875,4.26559,5.39793,-4.25079,0.175782,-0.211235,1.68546,-56.0281,-27.2268,34.4019,1
transient activities,141.0,33.9375,-8.10504,5.05198,0.555929,-0.0541837,0.0733307,-0.0173213,42.5073,1.45965,-15.2823,37.6875,1.86639,9.38732,-0.6901,0.0136071,-0.021318,-0.047949,12.0081,-29.6843,11.5238,32.75,9.39019,-0.870074,-3.11742,0.0356938,0.00955315,0.023457,-35.2746,-3.1244,11.3579,7
ascending stairs,138.0,34.125,-13.3536,7.07272,1.27873,-5.78858,1.16958,1.89764,51.9151,-13.8423,-2.87265,38.125,1.11296,8.97163,-6.82031,-0.537592,1.05546,-0.350831,1.52881,-28.5693,37.2077,35.3125,9.89728,3.06489,-1.82459,-0.144432,0.0105097,0.465701,-33.3025,-11.471,16.9313,2
cycling,127.0,33.0,-4.88363,5.81749,8.33756,0.172085,0.264701,0.0745358,33.7615,8.36562,-35.7787,38.25,0.616966,7.0539,-6.66818,-0.19319,-0.125223,0.270661,15.5371,-14.9904,18.0921,32.4375,3.91902,14.0896,-3.61367,0.233542,0.243671,1.28655,-24.3929,-16.315,0.915901,7
transient activities,90.72727272727272,32.5,-9.36309,2.79628,1.77629,0.0585719,-0.0214503,0.0212003,42.5506,-3.75248,-11.97,36.875,0.953782,9.76697,-0.669147,-0.00268546,-0.0194703,0.0110637,2.06375,-40.5417,15.6054,32.0,9.51855,-0.533244,-2.61653,0.00599977,-0.0115167,0.00663874,-24.2555,9.69795,5.42484,7
ironing,85.0,33.875,-7.69495,0.882627,5.61798,-0.296007,-0.0261143,0.378233,27.0025,-11.3919,-57.2985,36.25,-0.71956,9.72666,-1.86096,-0.107405,0.150511,-0.147905,0.269116,-39.1594,-9.51372,34.9375,9.69776,-0.580834,-1.57248,0.0134296,-0.0429622,-0.019632,-36.2915,13.1124,42.8222,6
Nordic walking,129.0,30.8125,-1.77176,-6.42857,3.65305,-0.408727,0.427663,1.51779,23.3069,41.1943,-27.8202,33.875,0.893467,4.83243,-0.963968,-0.361233,0.146677,-0.458465,1.08335,-47.8441,3.79566,31.75,2.71718,0.599029,-1.2269,-1.88092,-1.47557,-3.31189,-21.7158,39.823,4.26417,8
running,157.0,33.8125,-10.6556,16.8451,-2.4471,0.384101,1.94841,3.69966,28.5679,-46.438,-9.0582,36.4375,1.63653,18.1645,-0.258143,-1.18497,1.799,-0.127418,-2.39545,-42.3268,29.9669,34.0625,22.9726,3.3251,-6.51581,-0.561838,-0.131159,-1.1445,-27.8304,-29.9526,33.2573,5
lying,68.0,30.5,0.373425,4.49035,8.80566,-0.00860565,-0.00392245,0.00250564,-5.26456,16.4072,-33.255,33.125,0.616232,2.07862,9.26229,0.0263717,-0.0240998,-0.0678355,35.2653,4.32478,-32.6418,30.375,-0.949929,-8.95583,-4.67827,0.00107435,-0.00638317,0.0137636,-12.6633,28.1368,-7.17883,7
cycling,125.0,28.8125,-6.81881,-0.409993,6.09732,-0.142419,0.716546,0.162725,37.8809,2.68014,-43.6265,34.0625,0.0408317,4.37414,-7.87025,0.451952,0.143571,-0.463182,1.89357,-38.0935,23.6276,32.8125,9.22825,6.07189,-2.23601,0.147661,0.201416,1.51438,-45.2212,4.98097,15.8521,4
transient activities,87.0,33.5,-8.21876,3.93493,-1.40486,-0.171845,-0.740647,1.57676,64.529,-26.0264,-18.3098,35.75,1.4344,8.03104,-1.00329,-0.140905,1.11011,-0.0962428,18.4244,-41.7663,-7.11653,34.6875,8.7711,1.79079,-3.02451,-0.0333531,0.00723465,-0.252455,-28.8962,-10.8515,31.104,6
walking,125.0,32.625,-8.91634,-0.750572,0.13999,-0.386138,-0.286893,0.0803558,38.582,25.4953,-15.9451,37.1875,-2.40168,13.5778,-1.12953,0.189586,0.178432,0.153332,10.6937,-38.6657,13.6807,32.875,13.9738,0.600253,-5.35632,0.587044,1.17907,2.61178,-32.412,30.7575,23.5262,8
transient activities,112.0,33.1875,-9.39796,3.59263,1.69611,1.54967,-0.702077,-0.858675,41.2412,-28.8172,-25.7104,34.9375,1.72487,9.33514,-2.89959,-0.151355,-1.32158,0.419474,-12.8448,-61.0415,-0.685624,33.6875,9.82035,0.974525,-1.50369,-0.240242,-0.458276,-0.0391614,-48.1753,-18.0516,-4.92609,1
cycling,134.0,28.5,-6.79933,-1.9481,8.06565,-0.00189094,0.310191,0.166483,52.4255,9.23799,-25.192,34.3125,-1.07113,4.61063,-6.8457,0.062985,0.0759025,-0.0636455,13.6441,-7.98811,48.2141,34.0,12.0707,0.187672,0.145032,-0.259194,0.0914221,-1.48113,-39.766,-18.0814,15.0471,6
ironing,105.0,33.5625,-5.94253,0.465916,7.22362,-0.581758,0.531007,1.19466,4.57316,-7.46385,-56.3582,35.5625,-0.0249293,9.06048,-5.36982,-0.247298,-0.148373,-0.17595,0.975307,-40.747,3.75461,34.25,9.86214,1.38061,-0.116558,-0.0157267,-0.0803042,0.0342951,-45.4614,8.52727,35.5618,4
Nordic walking,116.0,30.625,-14.653733333333332,3.960656666666667,1.4621933333333337,0.6134426666666667,0.4346286666666666,-3.618136666666667,24.0355,-34.436033333333334,-10.41341,35.625,-1.82276,9.64044,-9.54741,0.375444,-0.407154,0.281778,-1.40492,-37.1789,11.9006,34.25,3.39977,9.95137,-7.91535,-2.25052,-0.143859,-2.77496,-34.598,-17.0042,13.2933,2
vacuum cleaning,90.0,35.375,-0.223508,8.97323,0.468322,-0.302913,-1.26484,0.045695,-9.78945,-42.7746,-5.06576,37.6875,-0.216561,9.53866,-1.58019,-0.0313667,-0.432912,-0.155106,-1.70627,-42.5665,-11.4822,34.375,9.47901,-0.304231,-2.73412,-0.10558,0.247618,0.0765208,-35.9305,24.3452,16.146,5
cycling,118.0,29.75,-7.81564,7.23566,7.36516,0.281775,-0.665285,-0.506383,32.1473,-3.77338,-45.1259,34.6875,-1.71114,1.83238,-11.4948,0.266927,-0.0688404,0.0769878,21.2081,-13.7999,36.5457,33.5625,11.6272,-8.24228,0.617284,-1.15362,0.187177,0.108644,-38.563,20.44,3.82282,2
walking,112.0,33.5,-14.4011,1.11928,4.97791,-0.111306,1.31403,-3.74238,43.4373,-40.5253,-30.6066,37.1875,1.63442,9.144,-3.36526,0.158105,0.147378,0.457821,-13.9464,-63.7262,-8.55095,34.875,4.13173,-2.13496,-2.27593,0.269457,-0.12048,0.397028,-51.2775,-41.0448,15.2775,1
transient activities,111.0,34.6875,6.86145,-1.51974,4.34312,1.43407,0.37069,-0.701885,-19.0814,-5.55903,-24.4325,38.25,-1.26305,9.7436,0.374954,0.215931,0.10417,0.141007,7.5104,-35.3186,8.42241,34.375,9.61917,-1.29108,-2.88092,-0.154997,0.558411,1.30188,-43.1769,11.768,-5.5652,5
descending stairs,109.0,32.1875,-8.11287,0.638499,3.41877,-3.40689,0.302372,-2.36832,17.0975,3.53157,4.77281,36.5625,0.408917,4.6483,-0.584938,-0.0962463,-0.659859,-0.167548,24.298,-24.036,-16.1298,34.125,1.70989,-14.4587,6.96003,0.529895,0.00921563,4.36992,-60.4568,-13.061,-32.7464,3
running,112.0,28.375,-8.27487,3.90374,3.52079,-0.0862896,0.157574,0.0250876,42.5104,-3.37519,-7.7728,33.625,1.16514,9.84635,0.0314014,0.0784892,0.175694,-0.0524333,13.3252,-27.1575,15.1847,33.9375,9.35102,-0.146827,-3.31526,0.0158062,-0.0233804,-0.00526278,-36.8915,-6.13951,9.37006,6
transient activities,102.0,33.9375,-1.37989,5.40894,8.1605,-0.671973,-1.50648,0.610472,25.9129,-19.1355,-33.2339,36.75,2.55646,9.45259,-1.83944,-0.0222611,0.202739,-0.130094,0.140183,-36.2265,26.7068,35.1875,9.51331,0.152761,-2.92955,0.108595,-0.0424816,0.177558,-27.6909,-3.26521,4.5768,6
vacuum cleaning,102.0,34.125,-1.6502,7.5194,2.10681,-0.0621281,0.640708,0.451278,6.17691,-20.668,-3.65738,36.6875,0.191004,7.27686,-1.75906,-0.239478,0.717338,0.139654,-0.422665,-19.6686,-1.30994,35.1875,1.78111,0.50765,1.38816,-0.479419,1.15491,1.78241,-7.0228,9.22397,5.20234,6
transient activities,111.0,33.8125,-10.5686,3.52613,1.71728,-1.54862,-0.239555,0.954106,80.6059,0.234677,16.9716,35.9375,2.73343,9.77884,-3.61846,-0.0866701,0.464921,-0.266672,-39.4692,-50.5812,40.1107,34.8125,11.1565,-1.81737,-0.0448483,-0.966598,0.297592,-1.22898,-76.0581,-64.3966,28.5992,1
vacuum cleaning,98.0,35.375,-4.28237,-6.15811,1.99806,-1.89493,4.48449,1.05028,-5.95526,-27.4927,-42.6986,37.6875,-2.2934,8.1109,-2.11655,-0.439514,-0.464701,-0.337475,-8.96207,-38.3323,18.4772,34.375,9.29585,0.0273444,-1.34883,-0.757531,-1.27405,-1.01,-39.5255,-6.47873,24.3954,5
standing,106.0,33.25,-3.85726,3.72572,0.239157,-1.95752,-0.9943,-1.05179,21.6141,-25.9559,1.5927,35.1875,1.50976,9.58222,0.115945,-0.340647,-0.255262,0.00175997,-9.44632,-27.9769,-0.761539,33.9375,9.41106,1.44344,-2.82284,-0.0219634,-0.0332714,0.00636113,1.84733,-11.7823,17.1718,4
sitting,97.0,31.9375,1.60318,8.16832,5.3863,0.59078,-0.247864,-0.0978127,12.6215,-63.7865,-20.5517,33.6875,0.292008,9.72823,-1.14566,0.0133917,0.139138,-0.107052,2.83516,-52.9939,39.5236,32.375,9.77589,-0.163975,-1.53567,0.0428398,0.0516915,-0.0352094,-83.2748,-37.3219,-56.3365,1
Nordic walking,131.0,30.4375,-8.48431,-0.909731,3.91876,-1.16188,-0.606116,1.14954,30.8322,-25.246,-27.983,35.4375,3.54138,14.2097,-5.0509,0.92174,-0.0515261,-0.0769637,14.0248,-21.7976,33.1163,34.1875,15.9099,0.748924,-1.78715,1.22379,0.403559,-2.36996,-34.5599,-17.317,3.38734,2
transient activities,81.0,29.8125,-6.66533,-0.211445,7.21508,-0.00532435,-0.0212569,-0.0214078,31.6596,-7.64802,-25.8349,35.3125,-0.180189,6.40865,-7.80343,0.0267794,-0.0356748,-0.0291034,0.269776,-8.12209,31.7653,34.375,9.8318,0.210656,-0.958579,-0.0146078,-0.0454173,0.0330497,-28.697,-5.2138,25.283,6
running,111.0,28.9375,-9.23952,-0.488365,-0.520021,0.875753,-1.57713,-2.27279,-5.33425,-41.5801,-24.7359,32.375,-4.53737,3.5858,-4.15598,0.164936,-1.51081,0.302274,3.36386,-45.0719,2.27859,31.875,14.1752,6.33091,-9.86621,-1.07342,0.0924021,-4.29076,-40.5384,-11.2262,9.31881,2
descending stairs,89.0,33.875,-9.0565,2.8329,1.89622,0.0250131,0.0892184,-0.0374996,21.3466,-0.977431,-10.7164,37.875,0.927039,8.71862,-5.35146,0.00819438,0.0349601,-0.00142336,0.516208,-23.9339,10.5992,35.1875,9.57847,-2.13716,-1.52545,0.0474988,-0.0194663,0.00982436,-15.0885,12.9021,-31.3552,2
running,126.0,28.9375,-4.51793,11.8882,0.201725,0.936375,-1.99191,-0.361006,12.2634,-49.0547,-13.6766,32.3125,-1.02902,13.7469,-8.8494,-0.238719,-2.42475,1.57235,-2.1757,-49.8533,7.70409,31.8125,4.50108,-2.02182,-2.4658,1.62695,-2.62261,4.68843,-44.9673,-12.8858,13.1745,2
transient activities,108.0,33.8125,-11.6517,3.26416,5.39673,-0.448511,0.149898,-0.650876,27.5245,8.85783,-33.3639,35.875,1.10737,13.0695,-2.22594,0.103778,0.0946647,0.117051,18.4862,-30.6893,23.856,34.8125,12.4063,24.4206,3.39397,-1.57719,0.0873383,0.56742,-45.7211,10.4963,-26.3029,1
transient activities,84.0,34.25,-9.24037,2.79776,2.04754,0.099605,0.117727,-0.231971,39.42,-10.7935,-27.4064,37.5,0.534322,9.69298,-0.676505,0.0406086,-0.0568223,0.0688198,13.3494,-35.7731,-9.44194,33.1875,9.91328,1.70196,-2.31763,0.315856,-0.316757,0.361437,-37.5507,11.3939,6.36892,7
running,142.0,28.875,8.36875,1.6097,-0.763679,0.588088,-0.746191,-0.842576,37.9154,-19.5802,-9.71788,32.25,4.28928,-0.295142,-0.304966,-0.200532,-0.0103093,0.679902,0.181485,-21.662,32.1709,31.75,11.2519,22.9077,22.2232,0.743569,-1.10309,1.1508,-37.3966,-4.33361,22.1158,2
standing,103.0,32.6875,2.33711,8.79106,3.5478,0.0364827,0.000725588,-0.0092894,-14.3055,-37.1034,-61.6181,34.3125,0.234478,9.88323,-0.527672,0.00633219,-0.0406104,-0.0302195,21.9896,-59.5163,-25.7738,33.0625,9.91449,-0.400528,-0.568043,0.0143618,0.00939503,0.0139465,-86.0797,38.794,-5.99019,1
lying,79.0,34.875,0.821649,7.60939,5.83832,-0.0120369,0.0322854,-0.0164247,-8.6289,8.39587,-33.987,36.625,-0.182636,1.36648,9.3663,-0.131765,0.0454432,-0.00638242,39.4165,5.97249,-28.2512,34.125,-0.269861,-8.99999,-4.43948,0.0790803,-0.0434321,0.00259308,-14.6942,28.371,-5.76793,5
sitting,67.0,34.3125,-2.01317,-6.81778,6.57579,0.0103529,0.0294574,-0.0120455,6.37557,16.5336,-28.555,37.625,0.375973,9.77613,0.404542,0.0244318,-0.0292626,0.0115081,5.25537,-25.9367,-4.05494,33.875,9.31231,2.77113,-2.60056,0.0249108,0.0195734,0.013282,-18.5426,15.3939,25.2948,8
transient activities,121.0,33.5,-11.5934,-0.898169,2.48661,-0.931776,1.1425,1.24242,52.3203,-47.2101,-9.88902,37.6875,2.26204,11.1292,0.937686,0.0537782,-0.154351,-0.173883,-17.6735,-46.5278,23.3983,33.5625,21.4213,-37.3164,-3.38529,-0.556375,-2.14555,-4.45612,-106.869,-27.298,33.1181,8
vacuum cleaning,93.0,34.1875,-3.25767,7.85885,4.69873,0.691363,-0.662452,-0.124088,10.5042,-41.0288,-42.2561,37.3125,-4.1874,8.36541,-4.35878,0.0978758,0.118493,-0.162579,14.2961,-49.7553,8.55159,33.125,9.20126,0.251049,-0.772349,0.0552345,0.170856,-0.0214554,-65.2968,14.3924,29.9538,7
sitting,76.0,34.9375,-0.0732614,7.43005,6.2104,-0.0166405,0.0286469,0.0059589,2.42726,-21.974,-28.7072,36.8125,0.507973,8.9694,3.66212,0.0137852,0.0238894,-0.0181384,5.53712,-21.5564,-9.57702,34.125,8.87435,-2.6837,-3.80606,0.00651726,0.0068671,-0.0183951,-34.6484,1.01865,29.7935,5
sitting,78.0,33.9375,-1.11986,6.98664,6.61958,-0.0200876,0.00554187,-0.0107084,-1.4741,-20.5314,-20.387,37.375,0.719637,8.98757,-4.65911,0.0219034,-0.0309879,-0.0197229,-3.01111,-19.9928,7.97689,34.75,9.34805,-2.62836,-1.64053,0.00959839,-0.031249,-0.00220196,-13.8751,-4.80057,19.6905,2
standing,90.0,34.625,-8.62145,-2.39184,3.53683,-0.0488729,0.0186229,-0.0332232,44.3372,-0.504642,-22.8856,37.6875,0.118321,9.77904,0.709632,0.0269221,0.0436291,-0.0542385,-5.85065,-36.7513,0.159324,34.5,9.01663,-0.514979,-4.47409,0.0191189,0.0217945,0.0471603,-37.3215,-2.50525,12.0591,8
vacuum cleaning,96.0,33.1875,-12.6043,3.55292,2.9183,1.1905,-0.869073,-0.562092,30.7201,-14.3993,-24.7401,36.6875,-3.41151,8.9017,-2.64274,0.618655,-1.02743,-0.0930903,27.6138,-24.5189,0.100159,34.0625,9.99052,-1.21655,-2.99334,-0.172247,1.26881,0.415197,-31.3878,11.1326,-12.4264,3
sitting,92.0,32.0,-3.29486,8.64484,3.46393,-0.00476136,-0.0110624,-0.0160578,72.1905,-31.4031,-6.53454,33.8125,2.26147,7.42635,-6.48471,-0.0468178,-0.00485489,0.0131762,6.50596,-14.2503,66.1084,32.4375,9.47907,1.81454,-1.82112,0.0307707,0.0190295,-0.015854,-61.4622,-71.3657,-51.308,1
transient activities,110.0,33.625,-3.54925,2.23068,7.25352,-1.09893,0.0769971,0.415361,50.9593,45.4268,-27.6395,36.0,-1.39724,9.58894,-0.28523,-0.846091,0.724422,-0.00533283,-0.633715,-24.4589,23.6736,34.375,10.7895,4.64737,-1.01488,1.04221,-0.220449,-0.806327,-49.8465,-12.0083,26.6348,4
rope jumping,198.0,30.8125,-11.1286,5.08015,-15.8466,-1.9091,4.65463,8.57095,-30.8633,21.1493,3.64428,34.125,-1.02112,8.8515,2.20212,0.643526,-0.409848,0.00380147,21.7472,-39.6961,-7.52818,31.6875,10.7691,0.111549,-3.49526,-0.458232,-0.15352,-0.149524,-34.8886,20.6124,34.0249,8
walking,94.0,31.875,-9.0254,2.8940433333333333,1.6912133333333337,1.7167366666666666,0.5549523333333334,-0.4507576666666666,44.790933333333335,24.678866666666668,0.8012463333333333,36.5,0.32403,8.86998,0.0193369,0.0449492,-0.358022,0.220518,9.61494,-37.9999,31.577,34.9375,15.9624,10.0167,-6.93795,-0.637689,-0.411981,6.79464,-42.8866,-13.4432,7.08812,6
walking,127.0,31.0,-12.1503,2.35594,1.00477,-0.472851,-0.569103,1.95104,23.9404,-25.7734,-48.9723,35.9375,1.19957,10.4501,-5.31343,0.163819,0.00890497,0.108531,24.7136,-44.4384,13.8806,34.25,13.4847,-1.18789,0.129479,-0.1993,0.625143,-2.01557,-51.9569,10.3569,-7.31527,2
sitting,74.0,32.0,-1.44286,3.40546,8.93606,-0.00746747,0.0137899,-0.0228112,4.42114,-9.22173,-29.4752,35.0,0.527739,9.37907,3.00289,-0.0231675,0.0324564,-0.0369479,4.43256,-19.2137,-6.61846,32.9375,9.74448,0.763787,1.12093,0.0466714,0.0341998,0.0103255,-14.2317,-4.1083,18.3392,3
transient activities,100.0,34.9375,0.813643,9.65127,0.827956,-0.00528174,0.040062,0.0482556,-16.3417,-52.7166,7.08116,38.5,1.84399,9.41112,-2.74279,0.0242989,0.164575,0.0314975,-25.6761,-53.4298,-0.16593,34.5,9.47065,-1.06232,-2.88386,0.0346553,0.0393333,-0.0755215,-39.9281,32.6915,28.3198,5
transient activities,125.0,32.8125,2.11072,9.16185,2.38853,-0.00349264,-0.00973615,0.000713549,10.5485,-43.3638,-33.8481,37.125,-0.256565,9.68888,-1.65884,-0.0417941,-0.0520419,-0.00182568,23.3212,-39.5453,9.33066,34.375,9.78807,0.0499399,0.161067,-0.0454286,0.00498704,0.00980912,-41.5708,-3.06067,-21.6541,1
Nordic walking,126.0,29.6875,-29.3644,23.7337,8.87261,1.43945,0.0914122,-2.32353,9.9653,-46.069,-14.1408,34.9375,-1.28181,15.1696,-4.63802,0.134201,0.387357,-0.191653,-4.95711,-41.6739,-10.3818,33.0625,25.3879,-7.63683,-5.03379,-2.13209,-0.0095059,-3.65644,-40.4499,-9.25497,27.7993,4
cycling,138.0,29.0,-0.865898,-1.52221,1.53327,-1.54609,0.547363,-1.08773,49.5705,-17.7976,-41.0326,34.875,-0.205235,4.00336,-7.13781,-0.148863,-0.264128,-0.645458,0.595378,-27.1145,53.0261,34.125,11.1463,-3.5636,-0.0727056,-0.965787,0.185213,-1.46005,-43.0314,-16.5137,11.2043,6
walking,119.0,32.8125,-11.1662,0.493023,1.44915,0.541719,1.91138,2.3619,42.3932,4.55381,-36.4292,37.375,0.424848,8.94182,-0.443722,0.0711609,-0.0297393,-0.483481,-6.85356,-39.6652,-14.3546,33.0,0.883277,4.4026,-0.651877,-0.526413,-0.501316,-2.13413,-43.4333,21.8455,2.08114,8
transient activities,93.0,34.625,-11.1294,4.07201,2.86166,-0.869928,-0.0350191,0.0621139,42.1101,-27.3061,-10.1203,36.1875,4.10622,12.7826,1.31421,0.191891,0.677536,-0.426451,0.371426,-45.9022,21.6872,34.0,13.214,0.331421,-4.39771,0.109533,-0.456623,-2.4873,-66.8177,-42.1899,26.4683,5
transient activities,138.0,32.125,-3.97367,6.74827,7.15494,0.730965,0.274489,0.281859,25.523,-5.83634,-57.9181,36.75,-1.85266,9.31864,-1.49295,-0.0299178,0.0593179,-0.133185,25.5568,-48.8319,-21.9053,34.0,9.73585,0.179265,-1.69257,-0.0281115,0.0191217,-0.0498809,-54.0483,32.7569,23.2666,1
sitting,80.0,33.9375,-3.76163,6.17475,6.85216,0.0594024,0.0209071,-0.229772,6.65204,-25.7919,-20.3053,37.375,0.448572,9.69981,0.289942,0.576672,-0.138793,-0.126881,-3.27146,-20.3356,-2.44664,34.75,8.98101,-2.93231,-1.3337,-0.0169487,0.0111204,0.0666588,-16.2588,-1.65075,21.4765,2
transient activities,117.0,31.3125,-7.42784,4.48766,1.68411,0.804218,0.838426,-2.06372,21.5881,-19.846,-16.9404,36.8125,-1.45245,11.7678,-1.06773,0.0594751,-1.1104,-0.204916,6.66185,-24.3589,10.2016,34.5,5.78781,-7.96615,-0.833538,-1.30206,-0.468148,-0.316969,-21.2632,-20.231,21.5668,3
transient activities,115.0,33.625,-9.24444,1.89757,3.20513,-0.0137261,0.0637258,-0.147456,19.7954,-32.3186,-8.33866,35.8125,0.516695,9.66011,0.0202591,-0.0451318,0.00484107,-0.0152718,-11.3868,-27.8894,-15.863,34.375,9.62274,0.87538,-3.16445,0.0387392,0.00315006,-0.0293735,-18.9845,-3.55657,52.9725,4
walking,117.0,32.0,-5.43697,2.17488,-9.05473,0.73593,-0.574273,2.14047,29.0684,5.69902,54.4034,35.6875,1.03337,11.7532,-2.02939,-0.663916,-2.36483,0.701199,-17.3044,-58.419,35.4537,33.625,2.89817,-3.96353,-0.579295,-2.64315,-0.01313,0.737762,-17.6937,-47.373,16.577,4
ascending stairs,91.0,34.3125,-8.46443,2.55997,1.59811,-1.80433,-0.0636906,0.674847,27.2348,13.0287,-26.3719,38.125,-0.507167,8.17064,-3.55578,0.0526824,2.11883,-0.782716,25.0122,-18.9204,20.5388,35.375,11.3174,-4.47396,-9.63552,7.05179,1.33836,2.95169,-11.1013,-8.22674,-4.13428,2
vacuum cleaning,94.0,35.375,-4.05549,9.67202,3.10268,-0.237732,1.59624,-2.65867,28.2412,-17.1598,-47.4236,37.6875,-1.61291,-0.0732877,-9.27971,-0.188764,-0.157353,-0.20701,0.681188,-22.3358,43.4113,34.375,9.87549,-1.13302,0.825328,-0.117278,-0.0320472,0.0281784,-50.5574,13.6973,-0.0619475,5
ironing,89.0,33.875,-6.34313,7.18487,2.99983,0.0608046,-0.26303,-0.516338,41.1849,-56.1753,-15.98,36.25,-1.6913,8.92636,-3.73457,-0.104569,-0.0831933,-0.0421547,-5.83623,-41.5273,3.71165,34.9375,10.1652,0.817946,-1.19047,0.542455,0.239786,0.636659,-37.8441,7.13336,40.9799,6
lying,60.0,30.8125,0.367272,4.56455,8.61288,-0.0587091,-0.024427,-0.0113446,-5.7598,16.4334,-33.5166,33.5,0.809192,2.11619,9.34311,0.0515951,0.0334431,-0.037391,35.2614,4.58286,-32.6433,30.5625,-0.882693,-8.72592,-4.98772,0.00575391,-0.0174135,-0.0123229,-12.4359,29.6717,-6.75431,7
ascending stairs,121.0,32.25,-4.62891,10.9355,8.09319,-1.42183,-1.2829,3.25507,4.34581,-9.24163,-44.5192,36.6875,0.59528,19.3403,0.49359,-0.31053,-0.131555,0.0776565,22.1469,-28.4897,-10.0395,34.3125,11.3336,6.83775,-4.65031,0.413372,-0.0653622,-0.511914,-41.4437,-3.05553,-5.56386,3
lying,88.0,31.5625,7.03084,1.38151,6.45268,-0.00390128,0.00287945,-0.0264593,-2.98867,22.8832,-55.5461,33.375,0.698221,-0.0652744,9.65795,-0.0180758,-0.0159519,-0.0349973,47.0241,12.4611,-45.5221,32.0,-0.0688899,-7.38673,-6.87858,0.032312,0.0379731,0.0111108,-18.6667,44.5314,-2.27188,1
transient activities,93.0,32.0,-8.87191,2.46139,2.9394,-0.036339,0.013013,-0.032405,22.8473,-3.49857,-24.5324,36.375,0.367099,9.59472,1.41172,0.0115481,-0.00085159,-0.0122278,0.215898,-31.4756,-6.699,33.9375,9.74002,0.558308,-1.6177,0.0094401,-0.00790171,-0.0216769,-50.8517,22.3502,-16.2322,3
ironing,89.0,34.3125,0.582552,6.48164,6.80073,-0.114145,0.114899,0.0718109,-8.81736,-53.2935,-28.9885,37.6875,-0.553692,8.15135,-6.42191,0.227146,0.15906,-0.133155,-15.0885,-29.3689,14.2776,35.0625,9.54221,-1.49081,-1.60701,0.10474,0.0197694,-0.0747328,-36.9269,11.9677,39.7387,2
standing,93.0,34.125,-8.47251,5.01964,0.858433,-0.00768453,0.0230866,-0.0191716,23.4114,-25.2138,3.00193,37.5,0.465615,9.06656,-4.23804,-0.00559427,-0.00157708,-0.017727,-8.98908,-24.2654,8.24815,34.8125,9.65601,-1.8342,-1.48795,0.0335879,0.023453,0.0243695,-19.177,-16.8572,36.3154,2
walking,123.0,33.5,2.70763,10.2902,-2.41726,-0.296841,-0.529863,0.0377479,-20.3034,-35.6425,12.6485,37.25,1.78663,10.3477,-3.48257,-0.0539267,0.165849,-0.340783,-15.7377,-36.0201,10.8266,34.875,9.7702,1.71167,-3.39967,-0.0756245,0.00166377,-0.657516,-31.2478,-9.33867,25.478,1
transient activities,97.0,30.3125,2.18576,9.27475,2.35079,-0.0654915,0.030021,-0.00382633,17.5983,-68.265,0.637099,32.125,0.618927,9.68588,-1.68169,0.000533892,-0.0165752,-0.00703712,-0.51788,-48.7842,43.5234,30.6875,9.62167,-1.88358,-0.0601776,0.00333427,-0.0125322,-0.0193732,-60.7706,-37.0928,-58.6224,1
walking,106.0,33.0,-9.35155,5.69702,3.69105,-0.192948,0.62628,-1.57304,62.6752,1.73478,-35.0097,38.0,-0.38343,10.8705,0.387227,0.248874,0.810842,-0.0957338,18.6368,-66.2881,2.75348,32.375,23.6205,13.1879,-10.5837,3.4845,-1.90477,5.90923,-52.8061,24.4059,13.2499,7
transient activities,135.0,32.0625,1.71578,9.34008,0.765545,0.2901,-0.718281,-0.732761,14.2661,-29.6331,-1.33865,36.5625,-3.32707,5.94186,-5.9616,-0.0200147,-0.970668,0.257767,9.06944,-9.41916,29.503,34.625,12.6097,1.39086,-3.48433,-1.11166,0.69929,-2.50725,-11.4817,-24.1032,4.48777,2
cycling,122.0,33.0,-5.49701,6.03742,6.94209,-0.650105,0.370518,0.190882,14.2949,-12.819,-51.0962,38.25,0.652693,7.0156,-6.74485,0.0820745,0.229719,-0.186912,-4.26724,-41.8501,10.3516,32.375,4.60222,3.44582,-2.57587,0.850751,-0.217488,1.82976,-40.2488,-0.379936,28.3571,7
